"","UniqueGroup","Condition","Session","Individual","Group","Gender","BreakfastToday","BreakfastUsually","HowHungry","Q1","Q2","Q3","Q4P","Q5P","Q1NP","Q2NP","Q3NP","Contribution","Punishment.Sent","Punishment.Received","Initial.Payoff","Final.Payoff","Group.Contribution","Group.Share","Total.Payoff","Participant.Number","Punishment.First","Punishment.Round","Questions.Correct","Punishment.Questions.Correct","Non.Punishment.Questions.Correct","Trial.Number","Condition.Name","Experiment","Round","UniqueID","GroupHunger","Number.Breakfast","Correct.Trial.Number","Lagged.Contribution","Lagged.MCO","Lagged.Punished"
"1","Original 1","1",1,"32",1,"M",1,1,5,1,1,1,1,1,1,1,1,8,"1","2","20",17,23,8,407,1,"Y","Y",1,1,1,1,"Breakfast","Original",1,"Original 1 32",4.25,2,1,NA,NA,0
"2","Original 1","1",1,"32",1,"M",1,1,5,1,1,1,1,1,1,1,1,8,"2","0","19",17,20,7,407,1,"Y","Y",1,1,1,2,"Breakfast","Original",2,"Original 1 32",4.25,2,2,8,5,1
"3","Original 1","1",1,"32",1,"M",1,1,5,1,1,1,1,1,1,1,1,5,"0","0","24",24,25,9,407,1,"Y","Y",1,1,1,3,"Breakfast","Original",3,"Original 1 32",4.25,2,3,8,4,0
"4","Original 1","1",1,"32",1,"M",1,1,5,1,1,1,1,1,1,1,1,5,"1","0","22",21,20,7,407,1,"Y","Y",1,1,1,4,"Breakfast","Original",4,"Original 1 32",4.25,2,4,5,6.66666666666667,0
"5","Original 1","1",1,"32",1,"M",1,1,5,1,1,1,1,1,1,1,1,0,"0","4","24",20,12,4,407,1,"Y","Y",1,1,1,5,"Breakfast","Original",5,"Original 1 32",4.25,2,5,5,5,0
"6","Original 1","1",1,"32",1,"M",1,1,5,1,1,1,1,1,1,1,1,5,"0","0","21",21,17,6,407,1,"Y","Y",1,1,1,6,"Breakfast","Original",6,"Original 1 32",4.25,2,6,0,4,1
"7","Original 1","1",1,"32",1,"M",1,1,5,1,1,1,1,1,1,1,1,2,"2","0","21",19,9,3,407,1,"Y","Y",1,1,1,7,"Breakfast","Original",7,"Original 1 32",4.25,2,7,5,4,0
"8","Original 1","1",1,"32",1,"M",1,1,5,1,1,1,1,1,1,1,1,0,"1","0","22",21,7,2,407,1,"Y","Y",1,1,1,8,"Breakfast","Original",8,"Original 1 32",4.25,2,8,2,2.33333333333333,0
"9","Original 1","1",1,"32",1,"M",1,1,5,1,1,1,1,1,1,1,1,0,"0","0","21",21,3,1,407,1,"Y","Y",1,1,1,9,"Breakfast","Original",9,"Original 1 32",4.25,2,9,0,2.33333333333333,0
"10","Original 1","1",1,"32",1,"M",1,1,5,1,1,1,1,1,1,1,1,0,"0","0","21",21,3,1,407,1,"Y","Y",1,1,1,10,"Breakfast","Original",10,"Original 1 32",4.25,2,10,0,1,0
"11","Original 1","1",1,"32",1,"M",1,1,5,1,1,1,1,1,1,1,1,5,"-","-","-",22,19,7,407,1,"Y","N",1,1,1,11,"Breakfast","Original",1,"Original 1 32",4.25,2,11,NA,NA,0
"12","Original 1","1",1,"32",1,"M",1,1,5,1,1,1,1,1,1,1,1,10,"-","-","-",18,22,8,407,1,"Y","N",1,1,1,12,"Breakfast","Original",2,"Original 1 32",4.25,2,12,5,4.66666666666667,0
"13","Original 1","1",1,"32",1,"M",1,1,5,1,1,1,1,1,1,1,1,4,"-","-","-",21,13,5,407,1,"Y","N",1,1,1,13,"Breakfast","Original",3,"Original 1 32",4.25,2,13,10,4,0
"14","Original 1","1",1,"32",1,"M",1,1,5,1,1,1,1,1,1,1,1,0,"-","-","-",22,4,2,407,1,"Y","N",1,1,1,14,"Breakfast","Original",4,"Original 1 32",4.25,2,14,4,3,0
"15","Original 1","1",1,"32",1,"M",1,1,5,1,1,1,1,1,1,1,1,0,"-","-","-",21,2,1,407,1,"Y","N",1,1,1,15,"Breakfast","Original",5,"Original 1 32",4.25,2,15,0,1.33333333333333,0
"16","Original 1","1",1,"32",1,"M",1,1,5,1,1,1,1,1,1,1,1,0,"-","-","-",21,2,1,407,1,"Y","N",1,1,1,16,"Breakfast","Original",6,"Original 1 32",4.25,2,16,0,0.666666666666667,0
"17","Original 1","1",1,"32",1,"M",1,1,5,1,1,1,1,1,1,1,1,0,"-","-","-",20,1,0,407,1,"Y","N",1,1,1,17,"Breakfast","Original",7,"Original 1 32",4.25,2,17,0,0.666666666666667,0
"18","Original 1","1",1,"32",1,"M",1,1,5,1,1,1,1,1,1,1,1,0,"-","-","-",20,0,0,407,1,"Y","N",1,1,1,18,"Breakfast","Original",8,"Original 1 32",4.25,2,18,0,0.333333333333333,0
"19","Original 1","1",1,"32",1,"M",1,1,5,1,1,1,1,1,1,1,1,0,"-","-","-",20,0,0,407,1,"Y","N",1,1,1,19,"Breakfast","Original",9,"Original 1 32",4.25,2,19,0,0,0
"20","Original 1","1",1,"32",1,"M",1,1,5,1,1,1,1,1,1,1,1,0,"-","-","-",20,0,0,407,1,"Y","N",1,1,1,20,"Breakfast","Original",10,"Original 1 32",4.25,2,20,0,0,0
"21","Original 1","1",1,"34",1,"F",1,1,1,0,0,0,1,1,1,1,0,0,"3","6","28",19,23,8,391,2,"Y","Y",0.5,1,0.333333333,1,"Breakfast","Original",1,"Original 1 34",4.25,2,1,NA,NA,0
"22","Original 1","1",1,"34",1,"F",1,1,1,0,0,0,1,1,1,1,0,5,"2","0","22",20,20,7,391,2,"Y","Y",0.5,1,0.333333333,2,"Breakfast","Original",2,"Original 1 34",4.25,2,2,0,7.66666666666667,1
"23","Original 1","1",1,"34",1,"F",1,1,1,0,0,0,1,1,1,1,0,5,"0","0","24",24,25,9,391,2,"Y","Y",0.5,1,0.333333333,3,"Breakfast","Original",3,"Original 1 34",4.25,2,3,5,5,0
"24","Original 1","1",1,"34",1,"F",1,1,1,0,0,0,1,1,1,1,0,8,"1","0","19",18,20,7,391,2,"Y","Y",0.5,1,0.333333333,4,"Breakfast","Original",4,"Original 1 34",4.25,2,4,5,6.66666666666667,0
"25","Original 1","1",1,"34",1,"F",1,1,1,0,0,0,1,1,1,1,0,5,"2","0","19",17,12,4,391,2,"Y","Y",0.5,1,0.333333333,5,"Breakfast","Original",5,"Original 1 34",4.25,2,5,8,4,0
"26","Original 1","1",1,"34",1,"F",1,1,1,0,0,0,1,1,1,1,0,8,"0","0","18",18,17,6,391,2,"Y","Y",0.5,1,0.333333333,6,"Breakfast","Original",6,"Original 1 34",4.25,2,6,5,2.33333333333333,0
"27","Original 1","1",1,"34",1,"F",1,1,1,0,0,0,1,1,1,1,0,5,"1","0","18",17,9,3,391,2,"Y","Y",0.5,1,0.333333333,7,"Breakfast","Original",7,"Original 1 34",4.25,2,7,8,3,0
"28","Original 1","1",1,"34",1,"F",1,1,1,0,0,0,1,1,1,1,0,5,"0","0","17",17,7,2,391,2,"Y","Y",0.5,1,0.333333333,8,"Breakfast","Original",8,"Original 1 34",4.25,2,8,5,1.33333333333333,0
"29","Original 1","1",1,"34",1,"F",1,1,1,0,0,0,1,1,1,1,0,2,"0","0","19",19,3,1,391,2,"Y","Y",0.5,1,0.333333333,9,"Breakfast","Original",9,"Original 1 34",4.25,2,9,5,0.666666666666667,0
"30","Original 1","1",1,"34",1,"F",1,1,1,0,0,0,1,1,1,1,0,2,"0","0","19",19,3,1,391,2,"Y","Y",0.5,1,0.333333333,10,"Breakfast","Original",10,"Original 1 34",4.25,2,10,2,0.333333333333333,0
"31","Original 1","1",1,"34",1,"F",1,1,1,0,0,0,1,1,1,1,0,4,"-","-","-",23,19,7,391,2,"Y","N",0.5,1,0.333333333,11,"Breakfast","Original",1,"Original 1 34",4.25,2,11,NA,NA,0
"32","Original 1","1",1,"34",1,"F",1,1,1,0,0,0,1,1,1,1,0,4,"-","-","-",24,22,8,391,2,"Y","N",0.5,1,0.333333333,12,"Breakfast","Original",2,"Original 1 34",4.25,2,12,4,5,0
"33","Original 1","1",1,"34",1,"F",1,1,1,0,0,0,1,1,1,1,0,5,"-","-","-",20,13,5,391,2,"Y","N",0.5,1,0.333333333,13,"Breakfast","Original",3,"Original 1 34",4.25,2,13,4,6,0
"34","Original 1","1",1,"34",1,"F",1,1,1,0,0,0,1,1,1,1,0,4,"-","-","-",18,4,2,391,2,"Y","N",0.5,1,0.333333333,14,"Breakfast","Original",4,"Original 1 34",4.25,2,14,5,2.66666666666667,0
"35","Original 1","1",1,"34",1,"F",1,1,1,0,0,0,1,1,1,1,0,2,"-","-","-",19,2,1,391,2,"Y","N",0.5,1,0.333333333,15,"Breakfast","Original",5,"Original 1 34",4.25,2,15,4,0,0
"36","Original 1","1",1,"34",1,"F",1,1,1,0,0,0,1,1,1,1,0,2,"-","-","-",19,2,1,391,2,"Y","N",0.5,1,0.333333333,16,"Breakfast","Original",6,"Original 1 34",4.25,2,16,2,0,0
"37","Original 1","1",1,"34",1,"F",1,1,1,0,0,0,1,1,1,1,0,0,"-","-","-",20,1,1,391,2,"Y","N",0.5,1,0.333333333,17,"Breakfast","Original",7,"Original 1 34",4.25,2,17,2,0,0
"38","Original 1","1",1,"34",1,"F",1,1,1,0,0,0,1,1,1,1,0,0,"-","-","-",20,0,0,391,2,"Y","N",0.5,1,0.333333333,18,"Breakfast","Original",8,"Original 1 34",4.25,2,18,0,0.333333333333333,0
"39","Original 1","1",1,"34",1,"F",1,1,1,0,0,0,1,1,1,1,0,0,"-","-","-",20,0,0,391,2,"Y","N",0.5,1,0.333333333,19,"Breakfast","Original",9,"Original 1 34",4.25,2,19,0,0,0
"40","Original 1","1",1,"34",1,"F",1,1,1,0,0,0,1,1,1,1,0,0,"-","-","-",20,0,0,391,2,"Y","N",0.5,1,0.333333333,20,"Breakfast","Original",10,"Original 1 34",4.25,2,20,0,0,0
"41","Original 1","1",1,"18",1,"M",0,1,8,1,0,0,1,1,1,1,1,5,"1","2","23",20,23,8,427,3,"Y","Y",0.75,1,0.666666667,1,"Breakfast","Original",1,"Original 1 18",4.25,2,1,NA,NA,0
"42","Original 1","1",1,"18",1,"M",0,1,8,1,0,0,1,1,1,1,1,7,"0","0","20",20,20,7,427,3,"Y","Y",0.75,1,0.666666667,2,"Breakfast","Original",2,"Original 1 18",4.25,2,2,5,6,1
"43","Original 1","1",1,"18",1,"M",0,1,8,1,0,0,1,1,1,1,1,8,"0","0","21",21,25,9,427,3,"Y","Y",0.75,1,0.666666667,3,"Breakfast","Original",3,"Original 1 18",4.25,2,3,7,4.33333333333333,0
"44","Original 1","1",1,"18",1,"M",0,1,8,1,0,0,1,1,1,1,1,0,"0","9","27",18,20,7,427,3,"Y","Y",0.75,1,0.666666667,4,"Breakfast","Original",4,"Original 1 18",4.25,2,4,8,5.66666666666667,0
"45","Original 1","1",1,"18",1,"M",0,1,8,1,0,0,1,1,1,1,1,2,"0","2","22",20,12,4,427,3,"Y","Y",0.75,1,0.666666667,5,"Breakfast","Original",5,"Original 1 18",4.25,2,5,0,6.66666666666667,1
"46","Original 1","1",1,"18",1,"M",0,1,8,1,0,0,1,1,1,1,1,2,"0","0","24",24,17,6,427,3,"Y","Y",0.75,1,0.666666667,6,"Breakfast","Original",6,"Original 1 18",4.25,2,6,2,3.33333333333333,1
"47","Original 1","1",1,"18",1,"M",0,1,8,1,0,0,1,1,1,1,1,0,"0","4","23",19,9,3,427,3,"Y","Y",0.75,1,0.666666667,7,"Breakfast","Original",7,"Original 1 18",4.25,2,7,2,5,0
"48","Original 1","1",1,"18",1,"M",0,1,8,1,0,0,1,1,1,1,1,0,"0","2","22",20,7,2,427,3,"Y","Y",0.75,1,0.666666667,8,"Breakfast","Original",8,"Original 1 18",4.25,2,8,0,3,1
"49","Original 1","1",1,"18",1,"M",0,1,8,1,0,0,1,1,1,1,1,1,"0","0","20",20,3,1,427,3,"Y","Y",0.75,1,0.666666667,9,"Breakfast","Original",9,"Original 1 18",4.25,2,9,0,2.33333333333333,1
"50","Original 1","1",1,"18",1,"M",0,1,8,1,0,0,1,1,1,1,1,0,"0","0","21",21,3,1,427,3,"Y","Y",0.75,1,0.666666667,10,"Breakfast","Original",10,"Original 1 18",4.25,2,10,1,0.666666666666667,0
"51","Original 1","1",1,"18",1,"M",0,1,8,1,0,0,1,1,1,1,1,0,"-","-","-",27,19,7,427,3,"Y","N",0.75,1,0.666666667,11,"Breakfast","Original",1,"Original 1 18",4.25,2,11,NA,NA,0
"52","Original 1","1",1,"18",1,"M",0,1,8,1,0,0,1,1,1,1,1,0,"-","-","-",28,22,8,427,3,"Y","N",0.75,1,0.666666667,12,"Breakfast","Original",2,"Original 1 18",4.25,2,12,0,6.33333333333333,0
"53","Original 1","1",1,"18",1,"M",0,1,8,1,0,0,1,1,1,1,1,0,"-","-","-",25,13,5,427,3,"Y","N",0.75,1,0.666666667,13,"Breakfast","Original",3,"Original 1 18",4.25,2,13,0,7.33333333333333,0
"54","Original 1","1",1,"18",1,"M",0,1,8,1,0,0,1,1,1,1,1,0,"-","-","-",22,4,2,427,3,"Y","N",0.75,1,0.666666667,14,"Breakfast","Original",4,"Original 1 18",4.25,2,14,0,4.33333333333333,0
"55","Original 1","1",1,"18",1,"M",0,1,8,1,0,0,1,1,1,1,1,0,"-","-","-",21,2,1,427,3,"Y","N",0.75,1,0.666666667,15,"Breakfast","Original",5,"Original 1 18",4.25,2,15,0,1.33333333333333,0
"56","Original 1","1",1,"18",1,"M",0,1,8,1,0,0,1,1,1,1,1,0,"-","-","-",21,2,1,427,3,"Y","N",0.75,1,0.666666667,16,"Breakfast","Original",6,"Original 1 18",4.25,2,16,0,0.666666666666667,0
"57","Original 1","1",1,"18",1,"M",0,1,8,1,0,0,1,1,1,1,1,0,"-","-","-",20,1,0,427,3,"Y","N",0.75,1,0.666666667,17,"Breakfast","Original",7,"Original 1 18",4.25,2,17,0,0.666666666666667,0
"58","Original 1","1",1,"18",1,"M",0,1,8,1,0,0,1,1,1,1,1,0,"-","-","-",20,1,0,427,3,"Y","N",0.75,1,0.666666667,18,"Breakfast","Original",8,"Original 1 18",4.25,2,18,0,0.333333333333333,0
"59","Original 1","1",1,"18",1,"M",0,1,8,1,0,0,1,1,1,1,1,0,"-","-","-",20,0,0,427,3,"Y","N",0.75,1,0.666666667,19,"Breakfast","Original",9,"Original 1 18",4.25,2,19,0,0.333333333333333,0
"60","Original 1","1",1,"18",1,"M",0,1,8,1,0,0,1,1,1,1,1,0,"-","-","-",20,0,0,427,3,"Y","N",0.75,1,0.666666667,20,"Breakfast","Original",10,"Original 1 18",4.25,2,20,0,0,0
"61","Original 1","1",1,"30",1,"F",0,0,3,1,1,1,1,1,1,1,1,10,"0","2","18",16,23,8,395,4,"Y","Y",1,1,1,1,"Breakfast","Original",1,"Original 1 30",4.25,2,1,NA,NA,0
"62","Original 1","1",1,"30",1,"F",0,0,3,1,1,1,1,1,1,1,1,0,"15","27","34",0,39,14,395,4,"Y","Y",1,1,1,2,"Breakfast","Original",2,"Original 1 30",4.25,2,2,10,4.33333333333333,1
"63","Original 1","1",1,"30",1,"F",0,0,3,1,1,1,1,1,1,1,1,7,"0","0","22",22,25,9,395,4,"Y","Y",1,1,1,3,"Breakfast","Original",3,"Original 1 30",4.25,2,3,0,13,1
"64","Original 1","1",1,"30",1,"F",0,0,3,1,1,1,1,1,1,1,1,7,"1","0","20",19,20,7,395,4,"Y","Y",1,1,1,4,"Breakfast","Original",4,"Original 1 30",4.25,2,4,7,6,0
"65","Original 1","1",1,"30",1,"F",0,0,3,1,1,1,1,1,1,1,1,5,"1","0","19",18,12,4,395,4,"Y","Y",1,1,1,5,"Breakfast","Original",5,"Original 1 30",4.25,2,5,7,4.33333333333333,0
"66","Original 1","1",1,"30",1,"F",0,0,3,1,1,1,1,1,1,1,1,2,"0","0","24",24,17,6,395,4,"Y","Y",1,1,1,6,"Breakfast","Original",6,"Original 1 30",4.25,2,6,5,2.33333333333333,0
"67","Original 1","1",1,"30",1,"F",0,0,3,1,1,1,1,1,1,1,1,2,"0","2","21",19,9,3,395,4,"Y","Y",1,1,1,7,"Breakfast","Original",7,"Original 1 30",4.25,2,7,2,5,0
"68","Original 1","1",1,"30",1,"F",0,0,3,1,1,1,1,1,1,1,1,2,"0","0","20",20,7,2,395,4,"Y","Y",1,1,1,8,"Breakfast","Original",8,"Original 1 30",4.25,2,8,2,2.33333333333333,1
"69","Original 1","1",1,"30",1,"F",0,0,3,1,1,1,1,1,1,1,1,0,"0","0","21",21,3,1,395,4,"Y","Y",1,1,1,9,"Breakfast","Original",9,"Original 1 30",4.25,2,9,2,1.66666666666667,0
"70","Original 1","1",1,"30",1,"F",0,0,3,1,1,1,1,1,1,1,1,1,"0","0","20",20,3,1,395,4,"Y","Y",1,1,1,10,"Breakfast","Original",10,"Original 1 30",4.25,2,10,0,1,0
"71","Original 1","1",1,"30",1,"F",0,0,3,1,1,1,1,1,1,1,1,10,"-","-","-",10,19,7,395,4,"Y","N",1,1,1,11,"Breakfast","Original",1,"Original 1 30",4.25,2,11,NA,NA,0
"72","Original 1","1",1,"30",1,"F",0,0,3,1,1,1,1,1,1,1,1,8,"-","-","-",20,22,8,395,4,"Y","N",1,1,1,12,"Breakfast","Original",2,"Original 1 30",4.25,2,12,10,3,0
"73","Original 1","1",1,"30",1,"F",0,0,3,1,1,1,1,1,1,1,1,4,"-","-","-",21,13,5,395,4,"Y","N",1,1,1,13,"Breakfast","Original",3,"Original 1 30",4.25,2,13,8,4.66666666666667,0
"74","Original 1","1",1,"30",1,"F",0,0,3,1,1,1,1,1,1,1,1,0,"-","-","-",22,4,2,395,4,"Y","N",1,1,1,14,"Breakfast","Original",4,"Original 1 30",4.25,2,14,4,3,0
"75","Original 1","1",1,"30",1,"F",0,0,3,1,1,1,1,1,1,1,1,0,"-","-","-",21,2,1,395,4,"Y","N",1,1,1,15,"Breakfast","Original",5,"Original 1 30",4.25,2,15,0,1.33333333333333,0
"76","Original 1","1",1,"30",1,"F",0,0,3,1,1,1,1,1,1,1,1,0,"-","-","-",21,2,1,395,4,"Y","N",1,1,1,16,"Breakfast","Original",6,"Original 1 30",4.25,2,16,0,0.666666666666667,0
"77","Original 1","1",1,"30",1,"F",0,0,3,1,1,1,1,1,1,1,1,1,"-","-","-",19,1,0,395,4,"Y","N",1,1,1,17,"Breakfast","Original",7,"Original 1 30",4.25,2,17,0,0.666666666666667,0
"78","Original 1","1",1,"30",1,"F",0,0,3,1,1,1,1,1,1,1,1,0,"-","-","-",20,0,0,395,4,"Y","N",1,1,1,18,"Breakfast","Original",8,"Original 1 30",4.25,2,18,1,0,0
"79","Original 1","1",1,"30",1,"F",0,0,3,1,1,1,1,1,1,1,1,0,"-","-","-",20,0,0,395,4,"Y","N",1,1,1,19,"Breakfast","Original",9,"Original 1 30",4.25,2,19,0,0,0
"80","Original 1","1",1,"30",1,"F",0,0,3,1,1,1,1,1,1,1,1,0,"-","-","-",20,0,0,395,4,"Y","N",1,1,1,20,"Breakfast","Original",10,"Original 1 30",4.25,2,20,0,0,0
"81","Original 10","1",3,"10",10,"M",1,1,7,1,1,1,1,1,1,1,1,20,"0","0","11",11,32,11,354,37,"Y","Y",1,1,1,1,"Breakfast","Original",1,"Original 10 10",4.5,4,1,NA,NA,0
"82","Original 10","1",3,"10",10,"M",1,1,7,1,1,1,1,1,1,1,1,10,"0","0","18",18,22,8,354,37,"Y","Y",1,1,1,2,"Breakfast","Original",2,"Original 10 10",4.5,4,2,20,4,0
"83","Original 10","1",3,"10",10,"M",1,1,7,1,1,1,1,1,1,1,1,0,"0","21","25",4,15,5,354,37,"Y","Y",1,1,1,3,"Breakfast","Original",3,"Original 10 10",4.5,4,3,10,4,0
"84","Original 10","1",3,"10",10,"M",1,1,7,1,1,1,1,1,1,1,1,10,"3","0","14",11,10,4,354,37,"Y","Y",1,1,1,4,"Breakfast","Original",4,"Original 10 10",4.5,4,4,0,5,1
"85","Original 10","1",3,"10",10,"M",1,1,7,1,1,1,1,1,1,1,1,5,"2","0","18",16,9,3,354,37,"Y","Y",1,1,1,5,"Breakfast","Original",5,"Original 10 10",4.5,4,5,10,0,0
"86","Original 10","1",3,"10",10,"M",1,1,7,1,1,1,1,1,1,1,1,1,"0","2","19",17,1,0,354,37,"Y","Y",1,1,1,6,"Breakfast","Original",6,"Original 10 10",4.5,4,6,5,1.33333333333333,0
"87","Original 10","1",3,"10",10,"M",1,1,7,1,1,1,1,1,1,1,1,0,"0","2","24",22,10,4,354,37,"Y","Y",1,1,1,7,"Breakfast","Original",7,"Original 10 10",4.5,4,7,1,0,1
"88","Original 10","1",3,"10",10,"M",1,1,7,1,1,1,1,1,1,1,1,0,"0","2","20",18,0,0,354,37,"Y","Y",1,1,1,8,"Breakfast","Original",8,"Original 10 10",4.5,4,8,0,3.33333333333333,1
"89","Original 10","1",3,"10",10,"M",1,1,7,1,1,1,1,1,1,1,1,0,"0","2","20",18,1,0,354,37,"Y","Y",1,1,1,9,"Breakfast","Original",9,"Original 10 10",4.5,4,9,0,0,1
"90","Original 10","1",3,"10",10,"M",1,1,7,1,1,1,1,1,1,1,1,0,"0","2","20",18,0,0,354,37,"Y","Y",1,1,1,10,"Breakfast","Original",10,"Original 10 10",4.5,4,10,0,0.333333333333333,1
"91","Original 10","1",3,"10",10,"M",1,1,7,1,1,1,1,1,1,1,1,10,"-","-","-",18,23,8,354,37,"Y","N",1,1,1,11,"Breakfast","Original",1,"Original 10 10",4.5,4,11,NA,NA,0
"92","Original 10","1",3,"10",10,"M",1,1,7,1,1,1,1,1,1,1,1,8,"-","-","-",17,15,5,354,37,"Y","N",1,1,1,12,"Breakfast","Original",2,"Original 10 10",4.5,4,12,10,4.33333333333333,0
"93","Original 10","1",3,"10",10,"M",1,1,7,1,1,1,1,1,1,1,1,0,"-","-","-",22,5,2,354,37,"Y","N",1,1,1,13,"Breakfast","Original",3,"Original 10 10",4.5,4,13,8,2.33333333333333,0
"94","Original 10","1",3,"10",10,"M",1,1,7,1,1,1,1,1,1,1,1,0,"-","-","-",24,10,4,354,37,"Y","N",1,1,1,14,"Breakfast","Original",4,"Original 10 10",4.5,4,14,0,1.66666666666667,0
"95","Original 10","1",3,"10",10,"M",1,1,7,1,1,1,1,1,1,1,1,0,"-","-","-",20,0,0,354,37,"Y","N",1,1,1,15,"Breakfast","Original",5,"Original 10 10",4.5,4,15,0,3.33333333333333,0
"96","Original 10","1",3,"10",10,"M",1,1,7,1,1,1,1,1,1,1,1,0,"-","-","-",20,1,0,354,37,"Y","N",1,1,1,16,"Breakfast","Original",6,"Original 10 10",4.5,4,16,0,0,0
"97","Original 10","1",3,"10",10,"M",1,1,7,1,1,1,1,1,1,1,1,0,"-","-","-",20,0,0,354,37,"Y","N",1,1,1,17,"Breakfast","Original",7,"Original 10 10",4.5,4,17,0,0.333333333333333,0
"98","Original 10","1",3,"10",10,"M",1,1,7,1,1,1,1,1,1,1,1,0,"-","-","-",20,0,0,354,37,"Y","N",1,1,1,18,"Breakfast","Original",8,"Original 10 10",4.5,4,18,0,0,0
"99","Original 10","1",3,"10",10,"M",1,1,7,1,1,1,1,1,1,1,1,0,"-","-","-",20,0,0,354,37,"Y","N",1,1,1,19,"Breakfast","Original",9,"Original 10 10",4.5,4,19,0,0,0
"100","Original 10","1",3,"10",10,"M",1,1,7,1,1,1,1,1,1,1,1,0,"-","-","-",20,0,0,354,37,"Y","N",1,1,1,20,"Breakfast","Original",10,"Original 10 10",4.5,4,20,0,0,0
"101","Original 10","1",3,"13",10,"M",1,1,2,1,1,1,1,1,0,0,1,2,"0","6","29",23,32,11,390,38,"Y","Y",0.75,1,0.666666667,1,"Breakfast","Original",1,"Original 10 13",4.5,4,1,NA,NA,0
"102","Original 10","1",3,"13",10,"M",1,1,2,1,1,1,1,1,0,0,1,5,"0","6","23",17,22,8,390,38,"Y","Y",0.75,1,0.666666667,2,"Breakfast","Original",2,"Original 10 13",4.5,4,2,2,10,1
"103","Original 10","1",3,"13",10,"M",1,1,2,1,1,1,1,1,0,0,1,0,"0","21","25",4,15,5,390,38,"Y","Y",0.75,1,0.666666667,3,"Breakfast","Original",3,"Original 10 13",4.5,4,3,5,5.66666666666667,1
"104","Original 10","1",3,"13",10,"M",1,1,2,1,1,1,1,1,0,0,1,0,"0","4","24",20,10,4,390,38,"Y","Y",0.75,1,0.666666667,4,"Breakfast","Original",4,"Original 10 13",4.5,4,4,0,5,1
"105","Original 10","1",3,"13",10,"M",1,1,2,1,1,1,1,1,0,0,1,0,"0","4","23",19,9,3,390,38,"Y","Y",0.75,1,0.666666667,5,"Breakfast","Original",5,"Original 10 13",4.5,4,5,0,3.33333333333333,1
"106","Original 10","1",3,"13",10,"M",1,1,2,1,1,1,1,1,0,0,1,0,"1","2","20",17,1,0,390,38,"Y","Y",0.75,1,0.666666667,6,"Breakfast","Original",6,"Original 10 13",4.5,4,6,0,3,1
"107","Original 10","1",3,"13",10,"M",1,1,2,1,1,1,1,1,0,0,1,0,"1","2","24",21,10,4,390,38,"Y","Y",0.75,1,0.666666667,7,"Breakfast","Original",7,"Original 10 13",4.5,4,7,0,0.333333333333333,1
"108","Original 10","1",3,"13",10,"M",1,1,2,1,1,1,1,1,0,0,1,0,"3","0","20",17,0,0,390,38,"Y","Y",0.75,1,0.666666667,8,"Breakfast","Original",8,"Original 10 13",4.5,4,8,0,3.33333333333333,1
"109","Original 10","1",3,"13",10,"M",1,1,2,1,1,1,1,1,0,0,1,0,"0","2","20",18,1,0,390,38,"Y","Y",0.75,1,0.666666667,9,"Breakfast","Original",9,"Original 10 13",4.5,4,9,0,0,0
"110","Original 10","1",3,"13",10,"M",1,1,2,1,1,1,1,1,0,0,1,0,"0","2","20",18,0,0,390,38,"Y","Y",0.75,1,0.666666667,10,"Breakfast","Original",10,"Original 10 13",4.5,4,10,0,0.333333333333333,1
"111","Original 10","1",3,"13",10,"M",1,1,2,1,1,1,1,1,0,0,1,0,"-","-","-",28,23,8,390,38,"Y","N",0.75,1,0.666666667,11,"Breakfast","Original",1,"Original 10 13",4.5,4,11,NA,NA,0
"112","Original 10","1",3,"13",10,"M",1,1,2,1,1,1,1,1,0,0,1,3,"-","-","-",22,15,5,390,38,"Y","N",0.75,1,0.666666667,12,"Breakfast","Original",2,"Original 10 13",4.5,4,12,0,7.66666666666667,0
"113","Original 10","1",3,"13",10,"M",1,1,2,1,1,1,1,1,0,0,1,0,"-","-","-",22,5,2,390,38,"Y","N",0.75,1,0.666666667,13,"Breakfast","Original",3,"Original 10 13",4.5,4,13,3,4,0
"114","Original 10","1",3,"13",10,"M",1,1,2,1,1,1,1,1,0,0,1,0,"-","-","-",24,10,4,390,38,"Y","N",0.75,1,0.666666667,14,"Breakfast","Original",4,"Original 10 13",4.5,4,14,0,1.66666666666667,0
"115","Original 10","1",3,"13",10,"M",1,1,2,1,1,1,1,1,0,0,1,0,"-","-","-",20,0,0,390,38,"Y","N",0.75,1,0.666666667,15,"Breakfast","Original",5,"Original 10 13",4.5,4,15,0,3.33333333333333,0
"116","Original 10","1",3,"13",10,"M",1,1,2,1,1,1,1,1,0,0,1,0,"-","-","-",20,1,0,390,38,"Y","N",0.75,1,0.666666667,16,"Breakfast","Original",6,"Original 10 13",4.5,4,16,0,0,0
"117","Original 10","1",3,"13",10,"M",1,1,2,1,1,1,1,1,0,0,1,0,"-","-","-",20,0,0,390,38,"Y","N",0.75,1,0.666666667,17,"Breakfast","Original",7,"Original 10 13",4.5,4,17,0,0.333333333333333,0
"118","Original 10","1",3,"13",10,"M",1,1,2,1,1,1,1,1,0,0,1,0,"-","-","-",20,0,0,390,38,"Y","N",0.75,1,0.666666667,18,"Breakfast","Original",8,"Original 10 13",4.5,4,18,0,0,0
"119","Original 10","1",3,"13",10,"M",1,1,2,1,1,1,1,1,0,0,1,0,"-","-","-",20,0,0,390,38,"Y","N",0.75,1,0.666666667,19,"Breakfast","Original",9,"Original 10 13",4.5,4,19,0,0,0
"120","Original 10","1",3,"13",10,"M",1,1,2,1,1,1,1,1,0,0,1,0,"-","-","-",20,0,0,390,38,"Y","N",0.75,1,0.666666667,20,"Breakfast","Original",10,"Original 10 13",4.5,4,20,0,0,0
"121","Original 10","1",3,"15",10,"M",1,1,8,1,1,0,0,0,0,0,1,10,"2","0","21",19,32,11,380,39,"Y","Y",0.375,0,0.5,1,"Breakfast","Original",1,"Original 10 15",4.5,4,1,NA,NA,0
"122","Original 10","1",3,"15",10,"M",1,1,8,1,1,0,0,0,0,0,1,5,"3","2","23",18,22,8,380,39,"Y","Y",0.375,0,0.5,2,"Breakfast","Original",2,"Original 10 15",4.5,4,2,10,7.33333333333333,0
"123","Original 10","1",3,"15",10,"M",1,1,8,1,1,0,0,0,0,0,1,10,"10","2","15",3,15,5,380,39,"Y","Y",0.375,0,0.5,3,"Breakfast","Original",3,"Original 10 15",4.5,4,3,5,5.66666666666667,1
"124","Original 10","1",3,"15",10,"M",1,1,8,1,1,0,0,0,0,0,1,0,"0","4","24",20,10,4,380,39,"Y","Y",0.375,0,0.5,4,"Breakfast","Original",4,"Original 10 15",4.5,4,4,10,1.66666666666667,1
"125","Original 10","1",3,"15",10,"M",1,1,8,1,1,0,0,0,0,0,1,0,"0","4","23",19,9,3,380,39,"Y","Y",0.375,0,0.5,5,"Breakfast","Original",5,"Original 10 15",4.5,4,5,0,3.33333333333333,1
"126","Original 10","1",3,"15",10,"M",1,1,8,1,1,0,0,0,0,0,1,0,"0","2","20",18,1,0,380,39,"Y","Y",0.375,0,0.5,6,"Breakfast","Original",6,"Original 10 15",4.5,4,6,0,3,1
"127","Original 10","1",3,"15",10,"M",1,1,8,1,1,0,0,0,0,0,1,0,"0","2","24",22,10,4,380,39,"Y","Y",0.375,0,0.5,7,"Breakfast","Original",7,"Original 10 15",4.5,4,7,0,0.333333333333333,1
"128","Original 10","1",3,"15",10,"M",1,1,8,1,1,0,0,0,0,0,1,0,"0","2","20",18,0,0,380,39,"Y","Y",0.375,0,0.5,8,"Breakfast","Original",8,"Original 10 15",4.5,4,8,0,3.33333333333333,1
"129","Original 10","1",3,"15",10,"M",1,1,8,1,1,0,0,0,0,0,1,0,"0","2","20",18,1,0,380,39,"Y","Y",0.375,0,0.5,9,"Breakfast","Original",9,"Original 10 15",4.5,4,9,0,0,1
"130","Original 10","1",3,"15",10,"M",1,1,8,1,1,0,0,0,0,0,1,0,"1","2","20",17,0,0,380,39,"Y","Y",0.375,0,0.5,10,"Breakfast","Original",10,"Original 10 15",4.5,4,10,0,0.333333333333333,1
"131","Original 10","1",3,"15",10,"M",1,1,8,1,1,0,0,0,0,0,1,10,"-","-","-",18,23,8,380,39,"Y","N",0.375,0,0.5,11,"Breakfast","Original",1,"Original 10 15",4.5,4,11,NA,NA,0
"132","Original 10","1",3,"15",10,"M",1,1,8,1,1,0,0,0,0,0,1,0,"-","-","-",25,15,5,380,39,"Y","N",0.375,0,0.5,12,"Breakfast","Original",2,"Original 10 15",4.5,4,12,10,4.33333333333333,0
"133","Original 10","1",3,"15",10,"M",1,1,8,1,1,0,0,0,0,0,1,0,"-","-","-",22,5,2,380,39,"Y","N",0.375,0,0.5,13,"Breakfast","Original",3,"Original 10 15",4.5,4,13,0,5,0
"134","Original 10","1",3,"15",10,"M",1,1,8,1,1,0,0,0,0,0,1,0,"-","-","-",24,10,4,380,39,"Y","N",0.375,0,0.5,14,"Breakfast","Original",4,"Original 10 15",4.5,4,14,0,1.66666666666667,0
"135","Original 10","1",3,"15",10,"M",1,1,8,1,1,0,0,0,0,0,1,0,"-","-","-",20,0,0,380,39,"Y","N",0.375,0,0.5,15,"Breakfast","Original",5,"Original 10 15",4.5,4,15,0,3.33333333333333,0
"136","Original 10","1",3,"15",10,"M",1,1,8,1,1,0,0,0,0,0,1,1,"-","-","-",19,1,0,380,39,"Y","N",0.375,0,0.5,16,"Breakfast","Original",6,"Original 10 15",4.5,4,16,0,0,0
"137","Original 10","1",3,"15",10,"M",1,1,8,1,1,0,0,0,0,0,1,0,"-","-","-",20,0,0,380,39,"Y","N",0.375,0,0.5,17,"Breakfast","Original",7,"Original 10 15",4.5,4,17,1,0,0
"138","Original 10","1",3,"15",10,"M",1,1,8,1,1,0,0,0,0,0,1,0,"-","-","-",20,0,0,380,39,"Y","N",0.375,0,0.5,18,"Breakfast","Original",8,"Original 10 15",4.5,4,18,0,0,0
"139","Original 10","1",3,"15",10,"M",1,1,8,1,1,0,0,0,0,0,1,0,"-","-","-",20,0,0,380,39,"Y","N",0.375,0,0.5,19,"Breakfast","Original",9,"Original 10 15",4.5,4,19,0,0,0
"140","Original 10","1",3,"15",10,"M",1,1,8,1,1,0,0,0,0,0,1,0,"-","-","-",20,0,0,380,39,"Y","N",0.375,0,0.5,20,"Breakfast","Original",10,"Original 10 15",4.5,4,20,0,0,0
"141","Original 10","1",3,"30",10,"F",1,1,1,1,1,1,0,0,1,1,1,0,"1","3","31",27,32,11,374,40,"Y","Y",0.75,0,1,1,"Breakfast","Original",1,"Original 10 30",4.5,4,1,NA,NA,0
"142","Original 10","1",3,"30",10,"F",1,1,1,1,1,1,0,0,1,1,1,2,"2","3","26",21,22,8,374,40,"Y","Y",0.75,0,1,2,"Breakfast","Original",2,"Original 10 30",4.5,4,2,0,10.6666666666667,1
"143","Original 10","1",3,"30",10,"F",1,1,1,1,1,1,0,0,1,1,1,5,"5","0","20",15,15,5,374,40,"Y","Y",0.75,0,1,3,"Breakfast","Original",3,"Original 10 30",4.5,4,3,2,6.66666666666667,1
"144","Original 10","1",3,"30",10,"F",1,1,1,1,1,1,0,0,1,1,1,0,"2","2","24",20,10,4,374,40,"Y","Y",0.75,0,1,4,"Breakfast","Original",4,"Original 10 30",4.5,4,4,5,3.33333333333333,0
"145","Original 10","1",3,"30",10,"F",1,1,1,1,1,1,0,0,1,1,1,4,"2","0","19",17,9,3,374,40,"Y","Y",0.75,0,1,5,"Breakfast","Original",5,"Original 10 30",4.5,4,5,0,3.33333333333333,1
"146","Original 10","1",3,"30",10,"F",1,1,1,1,1,1,0,0,1,1,1,0,"2","0","20",18,1,0,374,40,"Y","Y",0.75,0,1,6,"Breakfast","Original",6,"Original 10 30",4.5,4,6,4,1.66666666666667,0
"147","Original 10","1",3,"30",10,"F",1,1,1,1,1,1,0,0,1,1,1,10,"3","1","14",10,10,4,374,40,"Y","Y",0.75,0,1,7,"Breakfast","Original",7,"Original 10 30",4.5,4,7,0,0.333333333333333,0
"148","Original 10","1",3,"30",10,"F",1,1,1,1,1,1,0,0,1,1,1,0,"0","2","20",18,0,0,374,40,"Y","Y",0.75,0,1,8,"Breakfast","Original",8,"Original 10 30",4.5,4,8,10,0,1
"149","Original 10","1",3,"30",10,"F",1,1,1,1,1,1,0,0,1,1,1,1,"3","0","19",16,1,0,374,40,"Y","Y",0.75,0,1,9,"Breakfast","Original",9,"Original 10 30",4.5,4,9,0,0,1
"150","Original 10","1",3,"30",10,"F",1,1,1,1,1,1,0,0,1,1,1,0,"3","2","20",15,0,0,374,40,"Y","Y",0.75,0,1,10,"Breakfast","Original",10,"Original 10 30",4.5,4,10,1,0,0
"151","Original 10","1",3,"30",10,"F",1,1,1,1,1,1,0,0,1,1,1,3,"-","-","-",25,23,8,374,40,"Y","N",0.75,0,1,11,"Breakfast","Original",1,"Original 10 30",4.5,4,11,NA,NA,0
"152","Original 10","1",3,"30",10,"F",1,1,1,1,1,1,0,0,1,1,1,4,"-","-","-",21,15,5,374,40,"Y","N",0.75,0,1,12,"Breakfast","Original",2,"Original 10 30",4.5,4,12,3,6.66666666666667,0
"153","Original 10","1",3,"30",10,"F",1,1,1,1,1,1,0,0,1,1,1,5,"-","-","-",17,5,2,374,40,"Y","N",0.75,0,1,13,"Breakfast","Original",3,"Original 10 30",4.5,4,13,4,3.66666666666667,0
"154","Original 10","1",3,"30",10,"F",1,1,1,1,1,1,0,0,1,1,1,10,"-","-","-",14,10,4,374,40,"Y","N",0.75,0,1,14,"Breakfast","Original",4,"Original 10 30",4.5,4,14,5,0,0
"155","Original 10","1",3,"30",10,"F",1,1,1,1,1,1,0,0,1,1,1,0,"-","-","-",20,0,0,374,40,"Y","N",0.75,0,1,15,"Breakfast","Original",5,"Original 10 30",4.5,4,15,10,0,0
"156","Original 10","1",3,"30",10,"F",1,1,1,1,1,1,0,0,1,1,1,0,"-","-","-",20,1,0,374,40,"Y","N",0.75,0,1,16,"Breakfast","Original",6,"Original 10 30",4.5,4,16,0,0,0
"157","Original 10","1",3,"30",10,"F",1,1,1,1,1,1,0,0,1,1,1,0,"-","-","-",20,0,0,374,40,"Y","N",0.75,0,1,17,"Breakfast","Original",7,"Original 10 30",4.5,4,17,0,0.333333333333333,0
"158","Original 10","1",3,"30",10,"F",1,1,1,1,1,1,0,0,1,1,1,0,"-","-","-",20,0,0,374,40,"Y","N",0.75,0,1,18,"Breakfast","Original",8,"Original 10 30",4.5,4,18,0,0,0
"159","Original 10","1",3,"30",10,"F",1,1,1,1,1,1,0,0,1,1,1,0,"-","-","-",20,0,0,374,40,"Y","N",0.75,0,1,19,"Breakfast","Original",9,"Original 10 30",4.5,4,19,0,0,0
"160","Original 10","1",3,"30",10,"F",1,1,1,1,1,1,0,0,1,1,1,0,"-","-","-",20,0,0,374,40,"Y","N",0.75,0,1,20,"Breakfast","Original",10,"Original 10 30",4.5,4,20,0,0,0
"161","Original 11","1",3,"12",11,"F",1,1,2,1,1,1,1,0,1,1,1,10,"1","2","24",21,41,14,405,41,"Y","Y",0.875,0.5,1,1,"Breakfast","Original",1,"Original 11 12",4.25,4,1,NA,NA,0
"162","Original 11","1",3,"12",11,"F",1,1,2,1,1,1,1,0,1,1,1,7,"2","18","27",7,40,14,405,41,"Y","Y",0.875,0.5,1,2,"Breakfast","Original",2,"Original 11 12",4.25,4,2,10,10.3333333333333,1
"163","Original 11","1",3,"12",11,"F",1,1,2,1,1,1,1,0,1,1,1,20,"6","0","19",13,55,19,405,41,"Y","Y",0.875,0.5,1,3,"Breakfast","Original",3,"Original 11 12",4.25,4,3,7,11,1
"164","Original 11","1",3,"12",11,"F",1,1,2,1,1,1,1,0,1,1,1,19,"1","0","24",23,67,23,405,41,"Y","Y",0.875,0.5,1,4,"Breakfast","Original",4,"Original 11 12",4.25,4,4,20,11.6666666666667,0
"165","Original 11","1",3,"12",11,"F",1,1,2,1,1,1,1,0,1,1,1,18,"2","0","25",23,67,23,405,41,"Y","Y",0.875,0.5,1,5,"Breakfast","Original",5,"Original 11 12",4.25,4,5,19,16,0
"166","Original 11","1",3,"12",11,"F",1,1,2,1,1,1,1,0,1,1,1,20,"3","0","21",18,61,21,405,41,"Y","Y",0.875,0.5,1,6,"Breakfast","Original",6,"Original 11 12",4.25,4,6,18,16.3333333333333,0
"167","Original 11","1",3,"12",11,"F",1,1,2,1,1,1,1,0,1,1,1,18,"1","0","22",21,58,20,405,41,"Y","Y",0.875,0.5,1,7,"Breakfast","Original",7,"Original 11 12",4.25,4,7,20,13.6666666666667,0
"168","Original 11","1",3,"12",11,"F",1,1,2,1,1,1,1,0,1,1,1,20,"3","0","20",17,57,20,405,41,"Y","Y",0.875,0.5,1,8,"Breakfast","Original",8,"Original 11 12",4.25,4,8,18,13.3333333333333,0
"169","Original 11","1",3,"12",11,"F",1,1,2,1,1,1,1,0,1,1,1,17,"10","0","22",12,55,19,405,41,"Y","Y",0.875,0.5,1,9,"Breakfast","Original",9,"Original 11 12",4.25,4,9,20,12.3333333333333,0
"170","Original 11","1",3,"12",11,"F",1,1,2,1,1,1,1,0,1,1,1,0,"0","15","32",17,35,12,405,41,"Y","Y",0.875,0.5,1,10,"Breakfast","Original",10,"Original 11 12",4.25,4,10,17,12.6666666666667,0
"171","Original 11","1",3,"12",11,"F",1,1,2,1,1,1,1,0,1,1,1,0,"-","-","-",31,32,11,405,41,"Y","N",0.875,0.5,1,11,"Breakfast","Original",1,"Original 11 12",4.25,4,11,NA,NA,0
"172","Original 11","1",3,"12",11,"F",1,1,2,1,1,1,1,0,1,1,1,1,"-","-","-",25,16,6,405,41,"Y","N",0.875,0.5,1,12,"Breakfast","Original",2,"Original 11 12",4.25,4,12,0,10.6666666666667,0
"173","Original 11","1",3,"12",11,"F",1,1,2,1,1,1,1,0,1,1,1,0,"-","-","-",25,13,5,405,41,"Y","N",0.875,0.5,1,13,"Breakfast","Original",3,"Original 11 12",4.25,4,13,1,5,0
"174","Original 11","1",3,"12",11,"F",1,1,2,1,1,1,1,0,1,1,1,5,"-","-","-",20,15,5,405,41,"Y","N",0.875,0.5,1,14,"Breakfast","Original",4,"Original 11 12",4.25,4,14,0,4.33333333333333,0
"175","Original 11","1",3,"12",11,"F",1,1,2,1,1,1,1,0,1,1,1,0,"-","-","-",23,8,3,405,41,"Y","N",0.875,0.5,1,15,"Breakfast","Original",5,"Original 11 12",4.25,4,15,5,3.33333333333333,0
"176","Original 11","1",3,"12",11,"F",1,1,2,1,1,1,1,0,1,1,1,0,"-","-","-",22,5,2,405,41,"Y","N",0.875,0.5,1,16,"Breakfast","Original",6,"Original 11 12",4.25,4,16,0,2.66666666666667,0
"177","Original 11","1",3,"12",11,"F",1,1,2,1,1,1,1,0,1,1,1,0,"-","-","-",22,6,2,405,41,"Y","N",0.875,0.5,1,17,"Breakfast","Original",7,"Original 11 12",4.25,4,17,0,1.66666666666667,0
"178","Original 11","1",3,"12",11,"F",1,1,2,1,1,1,1,0,1,1,1,0,"-","-","-",25,15,5,405,41,"Y","N",0.875,0.5,1,18,"Breakfast","Original",8,"Original 11 12",4.25,4,18,0,2,0
"179","Original 11","1",3,"12",11,"F",1,1,2,1,1,1,1,0,1,1,1,0,"-","-","-",20,0,0,405,41,"Y","N",0.875,0.5,1,19,"Breakfast","Original",9,"Original 11 12",4.25,4,19,0,5,0
"180","Original 11","1",3,"12",11,"F",1,1,2,1,1,1,1,0,1,1,1,0,"-","-","-",20,0,0,405,41,"Y","N",0.875,0.5,1,20,"Breakfast","Original",10,"Original 11 12",4.25,4,20,0,0,0
"181","Original 11","1",3,"18",11,"M",1,1,4,1,1,0,1,1,1,1,0,19,"8","0","15",7,41,14,333,42,"Y","Y",0.75,1,0.666666667,1,"Breakfast","Original",1,"Original 11 18",4.25,4,1,NA,NA,0
"182","Original 11","1",3,"18",11,"M",1,1,4,1,1,0,1,1,1,1,0,18,"5","4","16",7,40,14,333,42,"Y","Y",0.75,1,0.666666667,2,"Breakfast","Original",2,"Original 11 18",4.25,4,2,19,7.33333333333333,0
"183","Original 11","1",3,"18",11,"M",1,1,4,1,1,0,1,1,1,1,0,16,"3","0","23",20,55,19,333,42,"Y","Y",0.75,1,0.666666667,3,"Breakfast","Original",3,"Original 11 18",4.25,4,3,18,7.33333333333333,1
"184","Original 11","1",3,"18",11,"M",1,1,4,1,1,0,1,1,1,1,0,19,"2","0","24",22,67,23,333,42,"Y","Y",0.75,1,0.666666667,4,"Breakfast","Original",4,"Original 11 18",4.25,4,4,16,13,0
"185","Original 11","1",3,"18",11,"M",1,1,4,1,1,0,1,1,1,1,0,19,"4","0","24",20,67,23,333,42,"Y","Y",0.75,1,0.666666667,5,"Breakfast","Original",5,"Original 11 18",4.25,4,5,19,16,0
"186","Original 11","1",3,"18",11,"M",1,1,4,1,1,0,1,1,1,1,0,19,"3","0","22",19,61,21,333,42,"Y","Y",0.75,1,0.666666667,6,"Breakfast","Original",6,"Original 11 18",4.25,4,6,19,16,0
"187","Original 11","1",3,"18",11,"M",1,1,4,1,1,0,1,1,1,1,0,20,"3","0","20",17,58,20,333,42,"Y","Y",0.75,1,0.666666667,7,"Breakfast","Original",7,"Original 11 18",4.25,4,7,19,14,0
"188","Original 11","1",3,"18",11,"M",1,1,4,1,1,0,1,1,1,1,0,20,"3","0","20",17,57,20,333,42,"Y","Y",0.75,1,0.666666667,8,"Breakfast","Original",8,"Original 11 18",4.25,4,8,20,12.6666666666667,0
"189","Original 11","1",3,"18",11,"M",1,1,4,1,1,0,1,1,1,1,0,19,"4","0","20",16,55,19,333,42,"Y","Y",0.75,1,0.666666667,9,"Breakfast","Original",9,"Original 11 18",4.25,4,9,20,12.3333333333333,0
"190","Original 11","1",3,"18",11,"M",1,1,4,1,1,0,1,1,1,1,0,18,"0","0","14",14,35,12,333,42,"Y","Y",0.75,1,0.666666667,10,"Breakfast","Original",10,"Original 11 18",4.25,4,10,19,12,0
"191","Original 11","1",3,"18",11,"M",1,1,4,1,1,0,1,1,1,1,0,15,"-","-","-",16,32,11,333,42,"Y","N",0.75,1,0.666666667,11,"Breakfast","Original",1,"Original 11 18",4.25,4,11,NA,NA,0
"192","Original 11","1",3,"18",11,"M",1,1,4,1,1,0,1,1,1,1,0,15,"-","-","-",11,16,6,333,42,"Y","N",0.75,1,0.666666667,12,"Breakfast","Original",2,"Original 11 18",4.25,4,12,15,5.66666666666667,0
"193","Original 11","1",3,"18",11,"M",1,1,4,1,1,0,1,1,1,1,0,12,"-","-","-",13,13,5,333,42,"Y","N",0.75,1,0.666666667,13,"Breakfast","Original",3,"Original 11 18",4.25,4,13,15,0.333333333333333,0
"194","Original 11","1",3,"18",11,"M",1,1,4,1,1,0,1,1,1,1,0,8,"-","-","-",17,15,5,333,42,"Y","N",0.75,1,0.666666667,14,"Breakfast","Original",4,"Original 11 18",4.25,4,14,12,0.333333333333333,0
"195","Original 11","1",3,"18",11,"M",1,1,4,1,1,0,1,1,1,1,0,5,"-","-","-",18,8,3,333,42,"Y","N",0.75,1,0.666666667,15,"Breakfast","Original",5,"Original 11 18",4.25,4,15,8,2.33333333333333,0
"196","Original 11","1",3,"18",11,"M",1,1,4,1,1,0,1,1,1,1,0,5,"-","-","-",17,5,2,333,42,"Y","N",0.75,1,0.666666667,16,"Breakfast","Original",6,"Original 11 18",4.25,4,16,5,1,0
"197","Original 11","1",3,"18",11,"M",1,1,4,1,1,0,1,1,1,1,0,5,"-","-","-",17,6,2,333,42,"Y","N",0.75,1,0.666666667,17,"Breakfast","Original",7,"Original 11 18",4.25,4,17,5,0,0
"198","Original 11","1",3,"18",11,"M",1,1,4,1,1,0,1,1,1,1,0,0,"-","-","-",25,15,5,333,42,"Y","N",0.75,1,0.666666667,18,"Breakfast","Original",8,"Original 11 18",4.25,4,18,5,0.333333333333333,0
"199","Original 11","1",3,"18",11,"M",1,1,4,1,1,0,1,1,1,1,0,0,"-","-","-",20,0,0,333,42,"Y","N",0.75,1,0.666666667,19,"Breakfast","Original",9,"Original 11 18",4.25,4,19,0,5,0
"200","Original 11","1",3,"18",11,"M",1,1,4,1,1,0,1,1,1,1,0,0,"-","-","-",20,0,0,333,42,"Y","N",0.75,1,0.666666667,20,"Breakfast","Original",10,"Original 11 18",4.25,4,20,0,0,0
"201","Original 11","1",3,"25",11,"F",1,0,7,0,0,0,0,0,0,0,0,5,"1","21","29",7,41,14,260,43,"Y","Y",0,0,0,1,"Breakfast","Original",1,"Original 11 25",4.25,4,1,NA,NA,0
"202","Original 11","1",3,"25",11,"F",1,0,7,0,0,0,0,0,0,0,0,15,"17","4","19",0,40,14,260,43,"Y","Y",0,0,0,2,"Breakfast","Original",2,"Original 11 25",4.25,4,2,5,12,1
"203","Original 11","1",3,"25",11,"F",1,0,7,0,0,0,0,0,0,0,0,7,"0","45","32",0,55,19,260,43,"Y","Y",0,0,0,3,"Breakfast","Original",3,"Original 11 25",4.25,4,3,15,8.33333333333333,1
"204","Original 11","1",3,"25",11,"F",1,0,7,0,0,0,0,0,0,0,0,16,"10","3","27",14,67,23,260,43,"Y","Y",0,0,0,4,"Breakfast","Original",4,"Original 11 25",4.25,4,4,7,16,1
"205","Original 11","1",3,"25",11,"F",1,0,7,0,0,0,0,0,0,0,0,15,"0","15","28",13,67,23,260,43,"Y","Y",0,0,0,5,"Breakfast","Original",5,"Original 11 25",4.25,4,5,16,17,1
"206","Original 11","1",3,"25",11,"F",1,0,7,0,0,0,0,0,0,0,0,5,"0","56","36",0,61,21,260,43,"Y","Y",0,0,0,6,"Breakfast","Original",6,"Original 11 25",4.25,4,6,15,17.3333333333333,1
"207","Original 11","1",3,"25",11,"F",1,0,7,0,0,0,0,0,0,0,0,20,"11","0","20",9,58,20,260,43,"Y","Y",0,0,0,7,"Breakfast","Original",7,"Original 11 25",4.25,4,7,5,18.6666666666667,1
"208","Original 11","1",3,"25",11,"F",1,0,7,0,0,0,0,0,0,0,0,17,"18","0","23",5,57,20,260,43,"Y","Y",0,0,0,8,"Breakfast","Original",8,"Original 11 25",4.25,4,8,20,12.6666666666667,0
"209","Original 11","1",3,"25",11,"F",1,0,7,0,0,0,0,0,0,0,0,19,"13","0","20",7,55,19,260,43,"Y","Y",0,0,0,9,"Breakfast","Original",9,"Original 11 25",4.25,4,9,17,13.3333333333333,0
"210","Original 11","1",3,"25",11,"F",1,0,7,0,0,0,0,0,0,0,0,17,"10","0","15",5,35,12,260,43,"Y","Y",0,0,0,10,"Breakfast","Original",10,"Original 11 25",4.25,4,10,19,12,0
"211","Original 11","1",3,"25",11,"F",1,0,7,0,0,0,0,0,0,0,0,17,"-","-","-",14,32,11,260,43,"Y","N",0,0,0,11,"Breakfast","Original",1,"Original 11 25",4.25,4,11,NA,NA,0
"212","Original 11","1",3,"25",11,"F",1,0,7,0,0,0,0,0,0,0,0,0,"-","-","-",26,16,6,260,43,"Y","N",0,0,0,12,"Breakfast","Original",2,"Original 11 25",4.25,4,12,17,5,0
"213","Original 11","1",3,"25",11,"F",1,0,7,0,0,0,0,0,0,0,0,1,"-","-","-",24,13,5,260,43,"Y","N",0,0,0,13,"Breakfast","Original",3,"Original 11 25",4.25,4,13,0,5.33333333333333,0
"214","Original 11","1",3,"25",11,"F",1,0,7,0,0,0,0,0,0,0,0,2,"-","-","-",23,15,5,260,43,"Y","N",0,0,0,14,"Breakfast","Original",4,"Original 11 25",4.25,4,14,1,4,0
"215","Original 11","1",3,"25",11,"F",1,0,7,0,0,0,0,0,0,0,0,3,"-","-","-",20,8,3,260,43,"Y","N",0,0,0,15,"Breakfast","Original",5,"Original 11 25",4.25,4,15,2,4.33333333333333,0
"216","Original 11","1",3,"25",11,"F",1,0,7,0,0,0,0,0,0,0,0,0,"-","-","-",22,5,2,260,43,"Y","N",0,0,0,16,"Breakfast","Original",6,"Original 11 25",4.25,4,16,3,1.66666666666667,0
"217","Original 11","1",3,"25",11,"F",1,0,7,0,0,0,0,0,0,0,0,1,"-","-","-",21,6,2,260,43,"Y","N",0,0,0,17,"Breakfast","Original",7,"Original 11 25",4.25,4,17,0,1.66666666666667,0
"218","Original 11","1",3,"25",11,"F",1,0,7,0,0,0,0,0,0,0,0,15,"-","-","-",10,15,5,260,43,"Y","N",0,0,0,18,"Breakfast","Original",8,"Original 11 25",4.25,4,18,1,1.66666666666667,0
"219","Original 11","1",3,"25",11,"F",1,0,7,0,0,0,0,0,0,0,0,0,"-","-","-",20,0,0,260,43,"Y","N",0,0,0,19,"Breakfast","Original",9,"Original 11 25",4.25,4,19,15,0,0
"220","Original 11","1",3,"25",11,"F",1,0,7,0,0,0,0,0,0,0,0,0,"-","-","-",20,0,0,260,43,"Y","N",0,0,0,20,"Breakfast","Original",10,"Original 11 25",4.25,4,20,0,0,0
"221","Original 11","1",3,"33",11,"F",1,1,4,0,1,0,1,1,1,1,1,7,"2","12","27",13,41,14,315,44,"Y","Y",0.75,1,0.666666667,1,"Breakfast","Original",1,"Original 11 33",4.25,4,1,NA,NA,0
"222","Original 11","1",3,"33",11,"F",1,1,4,0,1,0,1,1,1,1,1,0,"6","60","34",0,40,14,315,44,"Y","Y",0.75,1,0.666666667,2,"Breakfast","Original",2,"Original 11 33",4.25,4,2,7,11.3333333333333,1
"223","Original 11","1",3,"33",11,"F",1,1,4,0,1,0,1,1,1,1,1,12,"8","6","27",13,55,19,315,44,"Y","Y",0.75,1,0.666666667,3,"Breakfast","Original",3,"Original 11 33",4.25,4,3,0,13.3333333333333,1
"224","Original 11","1",3,"33",11,"F",1,1,4,0,1,0,1,1,1,1,1,13,"0","36","30",0,67,23,315,44,"Y","Y",0.75,1,0.666666667,4,"Breakfast","Original",4,"Original 11 33",4.25,4,4,12,14.3333333333333,1
"225","Original 11","1",3,"33",11,"F",1,1,4,0,1,0,1,1,1,1,1,15,"2","9","28",17,67,23,315,44,"Y","Y",0.75,1,0.666666667,5,"Breakfast","Original",5,"Original 11 33",4.25,4,5,13,18,1
"226","Original 11","1",3,"33",11,"F",1,1,4,0,1,0,1,1,1,1,1,17,"8","0","24",16,61,21,315,44,"Y","Y",0.75,1,0.666666667,6,"Breakfast","Original",6,"Original 11 33",4.25,4,6,15,17.3333333333333,1
"227","Original 11","1",3,"33",11,"F",1,1,4,0,1,0,1,1,1,1,1,0,"0","60","40",0,58,20,315,44,"Y","Y",0.75,1,0.666666667,7,"Breakfast","Original",7,"Original 11 33",4.25,4,7,17,14.6666666666667,0
"228","Original 11","1",3,"33",11,"F",1,1,4,0,1,0,1,1,1,1,1,0,"0","96","40",0,57,20,315,44,"Y","Y",0.75,1,0.666666667,8,"Breakfast","Original",8,"Original 11 33",4.25,4,8,0,19.3333333333333,1
"229","Original 11","1",3,"33",11,"F",1,1,4,0,1,0,1,1,1,1,1,0,"0","108","39",0,55,19,315,44,"Y","Y",0.75,1,0.666666667,9,"Breakfast","Original",9,"Original 11 33",4.25,4,9,0,19,1
"230","Original 11","1",3,"33",11,"F",1,1,4,0,1,0,1,1,1,1,1,0,"0","15","32",17,35,12,315,44,"Y","Y",0.75,1,0.666666667,10,"Breakfast","Original",10,"Original 11 33",4.25,4,10,0,18.3333333333333,1
"231","Original 11","1",3,"33",11,"F",1,1,4,0,1,0,1,1,1,1,1,0,"-","-","-",31,32,11,315,44,"Y","N",0.75,1,0.666666667,11,"Breakfast","Original",1,"Original 11 33",4.25,4,11,NA,NA,0
"232","Original 11","1",3,"33",11,"F",1,1,4,0,1,0,1,1,1,1,1,0,"-","-","-",26,16,6,315,44,"Y","N",0.75,1,0.666666667,12,"Breakfast","Original",2,"Original 11 33",4.25,4,12,0,10.6666666666667,0
"233","Original 11","1",3,"33",11,"F",1,1,4,0,1,0,1,1,1,1,1,0,"-","-","-",25,13,5,315,44,"Y","N",0.75,1,0.666666667,13,"Breakfast","Original",3,"Original 11 33",4.25,4,13,0,5.33333333333333,0
"234","Original 11","1",3,"33",11,"F",1,1,4,0,1,0,1,1,1,1,1,0,"-","-","-",25,15,5,315,44,"Y","N",0.75,1,0.666666667,14,"Breakfast","Original",4,"Original 11 33",4.25,4,14,0,4.33333333333333,0
"235","Original 11","1",3,"33",11,"F",1,1,4,0,1,0,1,1,1,1,1,0,"-","-","-",23,8,3,315,44,"Y","N",0.75,1,0.666666667,15,"Breakfast","Original",5,"Original 11 33",4.25,4,15,0,5,0
"236","Original 11","1",3,"33",11,"F",1,1,4,0,1,0,1,1,1,1,1,0,"-","-","-",22,5,2,315,44,"Y","N",0.75,1,0.666666667,16,"Breakfast","Original",6,"Original 11 33",4.25,4,16,0,2.66666666666667,0
"237","Original 11","1",3,"33",11,"F",1,1,4,0,1,0,1,1,1,1,1,0,"-","-","-",22,6,2,315,44,"Y","N",0.75,1,0.666666667,17,"Breakfast","Original",7,"Original 11 33",4.25,4,17,0,1.66666666666667,0
"238","Original 11","1",3,"33",11,"F",1,1,4,0,1,0,1,1,1,1,1,0,"-","-","-",25,15,5,315,44,"Y","N",0.75,1,0.666666667,18,"Breakfast","Original",8,"Original 11 33",4.25,4,18,0,2,0
"239","Original 11","1",3,"33",11,"F",1,1,4,0,1,0,1,1,1,1,1,0,"-","-","-",20,0,0,315,44,"Y","N",0.75,1,0.666666667,19,"Breakfast","Original",9,"Original 11 33",4.25,4,19,0,5,0
"240","Original 11","1",3,"33",11,"F",1,1,4,0,1,0,1,1,1,1,1,0,"-","-","-",20,0,0,315,44,"Y","N",0.75,1,0.666666667,20,"Breakfast","Original",10,"Original 11 33",4.25,4,20,0,0,0
"241","Original 12","1",3,"24",12,"M",0,0,7,1,0,1,1,1,1,1,0,10,"0","16","20",4,29,10,249,45,"Y","Y",0.75,1,0.666666667,1,"Breakfast","Original",1,"Original 12 24",4.25,3,1,NA,NA,0
"242","Original 12","1",3,"24",12,"M",0,0,7,1,0,1,1,1,1,1,0,8,"10","22","20",0,23,8,249,45,"Y","Y",0.75,1,0.666666667,2,"Breakfast","Original",2,"Original 12 24",4.25,3,2,10,6.33333333333333,1
"243","Original 12","1",3,"24",12,"M",0,0,7,1,0,1,1,1,1,1,0,0,"24","6","34",4,41,14,249,45,"Y","Y",0.75,1,0.666666667,3,"Breakfast","Original",3,"Original 12 24",4.25,3,3,8,5,1
"244","Original 12","1",3,"24",12,"M",0,0,7,1,0,1,1,1,1,1,0,15,"25","60","26",0,59,21,249,45,"Y","Y",0.75,1,0.666666667,4,"Breakfast","Original",4,"Original 12 24",4.25,3,4,0,13.6666666666667,1
"245","Original 12","1",3,"24",12,"M",0,0,7,1,0,1,1,1,1,1,0,20,"11","54","21",0,60,21,249,45,"Y","Y",0.75,1,0.666666667,5,"Breakfast","Original",5,"Original 12 24",4.25,3,5,15,14.6666666666667,1
"246","Original 12","1",3,"24",12,"M",0,0,7,1,0,1,1,1,1,1,0,15,"1","38","20",0,43,15,249,45,"Y","Y",0.75,1,0.666666667,6,"Breakfast","Original",6,"Original 12 24",4.25,3,6,20,13.3333333333333,1
"247","Original 12","1",3,"24",12,"M",0,0,7,1,0,1,1,1,1,1,0,20,"0","43","13",0,36,13,249,45,"Y","Y",0.75,1,0.666666667,7,"Breakfast","Original",7,"Original 12 24",4.25,3,7,15,9.33333333333333,1
"248","Original 12","1",3,"24",12,"M",0,0,7,1,0,1,1,1,1,1,0,0,"0","6","28",22,23,8,249,45,"Y","Y",0.75,1,0.666666667,8,"Breakfast","Original",8,"Original 12 24",4.25,3,8,20,5.33333333333333,1
"249","Original 12","1",3,"24",12,"M",0,0,7,1,0,1,1,1,1,1,0,0,"0","44","22",0,6,2,249,45,"Y","Y",0.75,1,0.666666667,9,"Breakfast","Original",9,"Original 12 24",4.25,3,9,0,7.66666666666667,1
"250","Original 12","1",3,"24",12,"M",0,0,7,1,0,1,1,1,1,1,0,20,"0","54","15",0,43,15,249,45,"Y","Y",0.75,1,0.666666667,10,"Breakfast","Original",10,"Original 12 24",4.25,3,10,0,2,1
"251","Original 12","1",3,"24",12,"M",0,0,7,1,0,1,1,1,1,1,0,10,"-","-","-",19,26,9,249,45,"Y","N",0.75,1,0.666666667,11,"Breakfast","Original",1,"Original 12 24",4.25,3,11,NA,NA,0
"252","Original 12","1",3,"24",12,"M",0,0,7,1,0,1,1,1,1,1,0,20,"-","-","-",9,26,9,249,45,"Y","N",0.75,1,0.666666667,12,"Breakfast","Original",2,"Original 12 24",4.25,3,12,10,5.33333333333333,0
"253","Original 12","1",3,"24",12,"M",0,0,7,1,0,1,1,1,1,1,0,5,"-","-","-",26,30,11,249,45,"Y","N",0.75,1,0.666666667,13,"Breakfast","Original",3,"Original 12 24",4.25,3,13,20,2,0
"254","Original 12","1",3,"24",12,"M",0,0,7,1,0,1,1,1,1,1,0,2,"-","-","-",27,25,9,249,45,"Y","N",0.75,1,0.666666667,14,"Breakfast","Original",4,"Original 12 24",4.25,3,14,5,8.33333333333333,0
"255","Original 12","1",3,"24",12,"M",0,0,7,1,0,1,1,1,1,1,0,2,"-","-","-",24,16,6,249,45,"Y","N",0.75,1,0.666666667,15,"Breakfast","Original",5,"Original 12 24",4.25,3,15,2,7.66666666666667,0
"256","Original 12","1",3,"24",12,"M",0,0,7,1,0,1,1,1,1,1,0,5,"-","-","-",22,21,7,249,45,"Y","N",0.75,1,0.666666667,16,"Breakfast","Original",6,"Original 12 24",4.25,3,16,2,4.66666666666667,0
"257","Original 12","1",3,"24",12,"M",0,0,7,1,0,1,1,1,1,1,0,5,"-","-","-",20,15,5,249,45,"Y","N",0.75,1,0.666666667,17,"Breakfast","Original",7,"Original 12 24",4.25,3,17,5,5.33333333333333,0
"258","Original 12","1",3,"24",12,"M",0,0,7,1,0,1,1,1,1,1,0,0,"-","-","-",27,19,7,249,45,"Y","N",0.75,1,0.666666667,18,"Breakfast","Original",8,"Original 12 24",4.25,3,18,5,3.33333333333333,0
"259","Original 12","1",3,"24",12,"M",0,0,7,1,0,1,1,1,1,1,0,0,"-","-","-",23,8,3,249,45,"Y","N",0.75,1,0.666666667,19,"Breakfast","Original",9,"Original 12 24",4.25,3,19,0,6.33333333333333,0
"260","Original 12","1",3,"24",12,"M",0,0,7,1,0,1,1,1,1,1,0,5,"-","-","-",22,20,7,249,45,"Y","N",0.75,1,0.666666667,20,"Breakfast","Original",10,"Original 12 24",4.25,3,20,0,2.66666666666667,0
"261","Original 12","1",3,"22",12,"F",1,1,1,0,0,1,0,0,1,0,1,5,"4","6","25",15,29,10,216,46,"Y","Y",0.375,0,0.5,1,"Breakfast","Original",1,"Original 12 22",4.25,3,1,NA,NA,0
"262","Original 12","1",3,"22",12,"F",1,1,1,0,0,1,0,0,1,0,1,5,"23","14","23",0,23,8,216,46,"Y","Y",0.375,0,0.5,2,"Breakfast","Original",2,"Original 12 22",4.25,3,2,5,8,1
"263","Original 12","1",3,"22",12,"F",1,1,1,0,0,1,0,0,1,0,1,10,"10","24","24",0,41,14,216,46,"Y","Y",0.375,0,0.5,3,"Breakfast","Original",3,"Original 12 22",4.25,3,3,5,6,1
"264","Original 12","1",3,"22",12,"F",1,1,1,0,0,1,0,0,1,0,1,20,"11","46","21",0,59,21,216,46,"Y","Y",0.375,0,0.5,4,"Breakfast","Original",4,"Original 12 22",4.25,3,4,10,10.3333333333333,1
"265","Original 12","1",3,"22",12,"F",1,1,1,0,0,1,0,0,1,0,1,10,"25","33","31",0,60,21,216,46,"Y","Y",0.375,0,0.5,5,"Breakfast","Original",5,"Original 12 22",4.25,3,5,20,13,1
"266","Original 12","1",3,"22",12,"F",1,1,1,0,0,1,0,0,1,0,1,20,"11","60","15",0,43,15,216,46,"Y","Y",0.375,0,0.5,6,"Breakfast","Original",6,"Original 12 22",4.25,3,6,10,16.6666666666667,1
"267","Original 12","1",3,"22",12,"F",1,1,1,0,0,1,0,0,1,0,1,3,"29","9","30",0,36,13,216,46,"Y","Y",0.375,0,0.5,7,"Breakfast","Original",7,"Original 12 22",4.25,3,7,20,7.66666666666667,1
"268","Original 12","1",3,"22",12,"F",1,1,1,0,0,1,0,0,1,0,1,5,"7","4","23",12,23,8,216,46,"Y","Y",0.375,0,0.5,8,"Breakfast","Original",8,"Original 12 22",4.25,3,8,3,11,1
"269","Original 12","1",3,"22",12,"F",1,1,1,0,0,1,0,0,1,0,1,5,"0","14","17",3,6,2,216,46,"Y","Y",0.375,0,0.5,9,"Breakfast","Original",9,"Original 12 22",4.25,3,9,5,6,1
"270","Original 12","1",3,"22",12,"F",1,1,1,0,0,1,0,0,1,0,1,3,"17","12","32",3,43,15,216,46,"Y","Y",0.375,0,0.5,10,"Breakfast","Original",10,"Original 12 22",4.25,3,10,5,0.333333333333333,1
"271","Original 12","1",3,"22",12,"F",1,1,1,0,0,1,0,0,1,0,1,5,"-","-","-",24,26,9,216,46,"Y","N",0.375,0,0.5,11,"Breakfast","Original",1,"Original 12 22",4.25,3,11,NA,NA,0
"272","Original 12","1",3,"22",12,"F",1,1,1,0,0,1,0,0,1,0,1,5,"-","-","-",24,26,9,216,46,"Y","N",0.375,0,0.5,12,"Breakfast","Original",2,"Original 12 22",4.25,3,12,5,7,0
"273","Original 12","1",3,"22",12,"F",1,1,1,0,0,1,0,0,1,0,1,10,"-","-","-",21,30,11,216,46,"Y","N",0.375,0,0.5,13,"Breakfast","Original",3,"Original 12 22",4.25,3,13,5,7,0
"274","Original 12","1",3,"22",12,"F",1,1,1,0,0,1,0,0,1,0,1,20,"-","-","-",9,25,9,216,46,"Y","N",0.375,0,0.5,14,"Breakfast","Original",4,"Original 12 22",4.25,3,14,10,6.66666666666667,0
"275","Original 12","1",3,"22",12,"F",1,1,1,0,0,1,0,0,1,0,1,8,"-","-","-",18,16,6,216,46,"Y","N",0.375,0,0.5,15,"Breakfast","Original",5,"Original 12 22",4.25,3,15,20,1.66666666666667,0
"276","Original 12","1",3,"22",12,"F",1,1,1,0,0,1,0,0,1,0,1,8,"-","-","-",19,21,7,216,46,"Y","N",0.375,0,0.5,16,"Breakfast","Original",6,"Original 12 22",4.25,3,16,8,2.66666666666667,0
"277","Original 12","1",3,"22",12,"F",1,1,1,0,0,1,0,0,1,0,1,10,"-","-","-",15,15,5,216,46,"Y","N",0.375,0,0.5,17,"Breakfast","Original",7,"Original 12 22",4.25,3,17,8,4.33333333333333,0
"278","Original 12","1",3,"22",12,"F",1,1,1,0,0,1,0,0,1,0,1,8,"-","-","-",19,19,7,216,46,"Y","N",0.375,0,0.5,18,"Breakfast","Original",8,"Original 12 22",4.25,3,18,10,1.66666666666667,0
"279","Original 12","1",3,"22",12,"F",1,1,1,0,0,1,0,0,1,0,1,8,"-","-","-",15,8,3,216,46,"Y","N",0.375,0,0.5,19,"Breakfast","Original",9,"Original 12 22",4.25,3,19,8,3.66666666666667,0
"280","Original 12","1",3,"22",12,"F",1,1,1,0,0,1,0,0,1,0,1,8,"-","-","-",19,20,7,216,46,"Y","N",0.375,0,0.5,20,"Breakfast","Original",10,"Original 12 22",4.25,3,20,8,0,0
"281","Original 12","1",3,"28",12,"F",1,1,7,1,1,0,0,0,0,1,0,4,"2","3","26",21,29,10,288,47,"Y","Y",0.375,0,0.5,1,"Breakfast","Original",1,"Original 12 28",4.25,3,1,NA,NA,0
"282","Original 12","1",3,"28",12,"F",1,1,7,1,1,0,0,0,0,1,0,10,"7","30","18",0,23,8,288,47,"Y","Y",0.375,0,0.5,2,"Breakfast","Original",2,"Original 12 28",4.25,3,2,4,8.33333333333333,1
"283","Original 12","1",3,"28",12,"F",1,1,7,1,1,0,0,0,0,1,0,16,"14","24","18",0,41,14,288,47,"Y","Y",0.375,0,0.5,3,"Breakfast","Original",3,"Original 12 28",4.25,3,3,10,4.33333333333333,1
"284","Original 12","1",3,"28",12,"F",1,1,7,1,1,0,0,0,0,1,0,20,"20","44","21",0,59,21,288,47,"Y","Y",0.375,0,0.5,4,"Breakfast","Original",4,"Original 12 28",4.25,3,4,16,8.33333333333333,1
"285","Original 12","1",3,"28",12,"F",1,1,7,1,1,0,0,0,0,1,0,20,"20","30","21",0,60,21,288,47,"Y","Y",0.375,0,0.5,5,"Breakfast","Original",5,"Original 12 28",4.25,3,5,20,13,1
"286","Original 12","1",3,"28",12,"F",1,1,7,1,1,0,0,0,0,1,0,1,"34","6","34",0,43,15,288,47,"Y","Y",0.375,0,0.5,6,"Breakfast","Original",6,"Original 12 28",4.25,3,6,20,13.3333333333333,1
"287","Original 12","1",3,"28",12,"F",1,1,7,1,1,0,0,0,0,1,0,1,"31","3","32",0,36,13,288,47,"Y","Y",0.375,0,0.5,7,"Breakfast","Original",7,"Original 12 28",4.25,3,7,1,14,1
"288","Original 12","1",3,"28",12,"F",1,1,7,1,1,0,0,0,0,1,0,0,"22","6","28",0,23,8,288,47,"Y","Y",0.375,0,0.5,8,"Breakfast","Original",8,"Original 12 28",4.25,3,8,1,11.6666666666667,1
"289","Original 12","1",3,"28",12,"F",1,1,7,1,1,0,0,0,0,1,0,1,"19","20","21",0,6,2,288,47,"Y","Y",0.375,0,0.5,9,"Breakfast","Original",9,"Original 12 28",4.25,3,9,0,7.66666666666667,1
"290","Original 12","1",3,"28",12,"F",1,1,7,1,1,0,0,0,0,1,0,12,"21","20","23",0,43,15,288,47,"Y","Y",0.375,0,0.5,10,"Breakfast","Original",10,"Original 12 28",4.25,3,10,1,1.66666666666667,1
"291","Original 12","1",3,"28",12,"F",1,1,7,1,1,0,0,0,0,1,0,1,"-","-","-",28,26,9,288,47,"Y","N",0.375,0,0.5,11,"Breakfast","Original",1,"Original 12 28",4.25,3,11,NA,NA,0
"292","Original 12","1",3,"28",12,"F",1,1,7,1,1,0,0,0,0,1,0,1,"-","-","-",28,26,9,288,47,"Y","N",0.375,0,0.5,12,"Breakfast","Original",2,"Original 12 28",4.25,3,12,1,8.33333333333333,0
"293","Original 12","1",3,"28",12,"F",1,1,7,1,1,0,0,0,0,1,0,0,"-","-","-",31,30,11,288,47,"Y","N",0.375,0,0.5,13,"Breakfast","Original",3,"Original 12 28",4.25,3,13,1,8.33333333333333,0
"294","Original 12","1",3,"28",12,"F",1,1,7,1,1,0,0,0,0,1,0,0,"-","-","-",29,25,9,288,47,"Y","N",0.375,0,0.5,14,"Breakfast","Original",4,"Original 12 28",4.25,3,14,0,10,0
"295","Original 12","1",3,"28",12,"F",1,1,7,1,1,0,0,0,0,1,0,1,"-","-","-",25,16,6,288,47,"Y","N",0.375,0,0.5,15,"Breakfast","Original",5,"Original 12 28",4.25,3,15,0,8.33333333333333,0
"296","Original 12","1",3,"28",12,"F",1,1,7,1,1,0,0,0,0,1,0,0,"-","-","-",27,21,7,288,47,"Y","N",0.375,0,0.5,16,"Breakfast","Original",6,"Original 12 28",4.25,3,16,1,5,0
"297","Original 12","1",3,"28",12,"F",1,1,7,1,1,0,0,0,0,1,0,0,"-","-","-",25,15,5,288,47,"Y","N",0.375,0,0.5,17,"Breakfast","Original",7,"Original 12 28",4.25,3,17,0,7,0
"298","Original 12","1",3,"28",12,"F",1,1,7,1,1,0,0,0,0,1,0,1,"-","-","-",26,19,7,288,47,"Y","N",0.375,0,0.5,18,"Breakfast","Original",8,"Original 12 28",4.25,3,18,0,5,0
"299","Original 12","1",3,"28",12,"F",1,1,7,1,1,0,0,0,0,1,0,0,"-","-","-",23,8,3,288,47,"Y","N",0.375,0,0.5,19,"Breakfast","Original",9,"Original 12 28",4.25,3,19,1,6,0
"300","Original 12","1",3,"28",12,"F",1,1,7,1,1,0,0,0,0,1,0,2,"-","-","-",25,20,7,288,47,"Y","N",0.375,0,0.5,20,"Breakfast","Original",10,"Original 12 28",4.25,3,20,0,2.66666666666667,0
"301","Original 12","1",3,"9",12,"M",1,0,2,0,1,1,0,0,1,1,1,10,"8","6","20",6,29,10,230,48,"Y","Y",0.625,0,0.833333333,1,"Breakfast","Original",1,"Original 12 9",4.25,3,1,NA,NA,0
"302","Original 12","1",3,"9",12,"M",1,0,2,0,1,1,0,0,1,1,1,0,"0","21","28",7,23,8,230,48,"Y","Y",0.625,0,0.833333333,2,"Breakfast","Original",2,"Original 12 9",4.25,3,2,10,6.33333333333333,1
"303","Original 12","1",3,"9",12,"M",1,0,2,0,1,1,0,0,1,1,1,15,"3","50","19",0,41,14,230,48,"Y","Y",0.625,0,0.833333333,3,"Breakfast","Original",3,"Original 12 9",4.25,3,3,0,7.66666666666667,1
"304","Original 12","1",3,"9",12,"M",1,0,2,0,1,1,0,0,1,1,1,4,"15","24","37",0,59,21,230,48,"Y","Y",0.625,0,0.833333333,4,"Breakfast","Original",4,"Original 12 9",4.25,3,4,15,8.66666666666667,1
"305","Original 12","1",3,"9",12,"M",1,0,2,0,1,1,0,0,1,1,1,10,"8","33","31",0,60,21,230,48,"Y","Y",0.625,0,0.833333333,5,"Breakfast","Original",5,"Original 12 9",4.25,3,5,4,18.3333333333333,1
"306","Original 12","1",3,"9",12,"M",1,0,2,0,1,1,0,0,1,1,1,7,"12","21","28",0,43,15,230,48,"Y","Y",0.625,0,0.833333333,6,"Breakfast","Original",6,"Original 12 9",4.25,3,6,10,16.6666666666667,1
"307","Original 12","1",3,"9",12,"M",1,0,2,0,1,1,0,0,1,1,1,12,"5","36","21",0,36,13,230,48,"Y","Y",0.625,0,0.833333333,7,"Breakfast","Original",7,"Original 12 9",4.25,3,7,7,12,1
"308","Original 12","1",3,"9",12,"M",1,0,2,0,1,1,0,0,1,1,1,18,"2","25","10",0,23,8,230,48,"Y","Y",0.625,0,0.833333333,8,"Breakfast","Original",8,"Original 12 9",4.25,3,8,12,8,1
"309","Original 12","1",3,"9",12,"M",1,0,2,0,1,1,0,0,1,1,1,0,"22","4","22",0,6,2,230,48,"Y","Y",0.625,0,0.833333333,9,"Breakfast","Original",9,"Original 12 9",4.25,3,9,18,1.66666666666667,1
"310","Original 12","1",3,"9",12,"M",1,0,2,0,1,1,0,0,1,1,1,8,"11","24","27",0,43,15,230,48,"Y","Y",0.625,0,0.833333333,10,"Breakfast","Original",10,"Original 12 9",4.25,3,10,0,2,1
"311","Original 12","1",3,"9",12,"M",1,0,2,0,1,1,0,0,1,1,1,10,"-","-","-",19,26,9,230,48,"Y","N",0.625,0,0.833333333,11,"Breakfast","Original",1,"Original 12 9",4.25,3,11,NA,NA,0
"312","Original 12","1",3,"9",12,"M",1,0,2,0,1,1,0,0,1,1,1,0,"-","-","-",29,26,9,230,48,"Y","N",0.625,0,0.833333333,12,"Breakfast","Original",2,"Original 12 9",4.25,3,12,10,5.33333333333333,0
"313","Original 12","1",3,"9",12,"M",1,0,2,0,1,1,0,0,1,1,1,15,"-","-","-",16,30,11,230,48,"Y","N",0.625,0,0.833333333,13,"Breakfast","Original",3,"Original 12 9",4.25,3,13,0,8.66666666666667,0
"314","Original 12","1",3,"9",12,"M",1,0,2,0,1,1,0,0,1,1,1,3,"-","-","-",26,25,9,230,48,"Y","N",0.625,0,0.833333333,14,"Breakfast","Original",4,"Original 12 9",4.25,3,14,15,5,0
"315","Original 12","1",3,"9",12,"M",1,0,2,0,1,1,0,0,1,1,1,5,"-","-","-",21,16,6,230,48,"Y","N",0.625,0,0.833333333,15,"Breakfast","Original",5,"Original 12 9",4.25,3,15,3,7.33333333333333,0
"316","Original 12","1",3,"9",12,"M",1,0,2,0,1,1,0,0,1,1,1,8,"-","-","-",19,21,7,230,48,"Y","N",0.625,0,0.833333333,16,"Breakfast","Original",6,"Original 12 9",4.25,3,16,5,3.66666666666667,0
"317","Original 12","1",3,"9",12,"M",1,0,2,0,1,1,0,0,1,1,1,0,"-","-","-",25,15,5,230,48,"Y","N",0.625,0,0.833333333,17,"Breakfast","Original",7,"Original 12 9",4.25,3,17,8,4.33333333333333,0
"318","Original 12","1",3,"9",12,"M",1,0,2,0,1,1,0,0,1,1,1,10,"-","-","-",17,19,7,230,48,"Y","N",0.625,0,0.833333333,18,"Breakfast","Original",8,"Original 12 9",4.25,3,18,0,5,0
"319","Original 12","1",3,"9",12,"M",1,0,2,0,1,1,0,0,1,1,1,0,"-","-","-",23,8,3,230,48,"Y","N",0.625,0,0.833333333,19,"Breakfast","Original",9,"Original 12 9",4.25,3,19,10,3,0
"320","Original 12","1",3,"9",12,"M",1,0,2,0,1,1,0,0,1,1,1,5,"-","-","-",22,20,7,230,48,"Y","N",0.625,0,0.833333333,20,"Breakfast","Original",10,"Original 12 9",4.25,3,20,0,2.66666666666667,0
"321","Original 13","1",3,"17",13,"M",1,0,1,1,1,1,1,0,1,1,1,10,"0","3","25",22,43,15,407,49,"Y","Y",0.875,0.5,1,1,"Breakfast","Original",1,"Original 13 17",1.75,4,1,NA,NA,0
"322","Original 13","1",3,"17",13,"M",1,0,1,1,1,1,1,0,1,1,1,12,"1","4","23",18,42,15,407,49,"Y","Y",0.875,0.5,1,2,"Breakfast","Original",2,"Original 13 17",1.75,4,2,10,11,1
"323","Original 13","1",3,"17",13,"M",1,0,1,1,1,1,1,0,1,1,1,10,"1","9","28",18,50,18,407,49,"Y","Y",0.875,0.5,1,3,"Breakfast","Original",3,"Original 13 17",1.75,4,3,12,10,1
"324","Original 13","1",3,"17",13,"M",1,0,1,1,1,1,1,0,1,1,1,9,"0","9","25",16,40,14,407,49,"Y","Y",0.875,0.5,1,4,"Breakfast","Original",4,"Original 13 17",1.75,4,4,10,13.3333333333333,1
"325","Original 13","1",3,"17",13,"M",1,0,1,1,1,1,1,0,1,1,1,12,"0","9","25",16,49,17,407,49,"Y","Y",0.875,0.5,1,5,"Breakfast","Original",5,"Original 13 17",1.75,4,5,9,10.3333333333333,1
"326","Original 13","1",3,"17",13,"M",1,0,1,1,1,1,1,0,1,1,1,13,"0","2","22",20,42,15,407,49,"Y","Y",0.875,0.5,1,6,"Breakfast","Original",6,"Original 13 17",1.75,4,6,12,12.3333333333333,1
"327","Original 13","1",3,"17",13,"M",1,0,1,1,1,1,1,0,1,1,1,15,"0","4","21",17,47,16,407,49,"Y","Y",0.875,0.5,1,7,"Breakfast","Original",7,"Original 13 17",1.75,4,7,13,9.66666666666667,1
"328","Original 13","1",3,"17",13,"M",1,0,1,1,1,1,1,0,1,1,1,17,"0","4","21",17,50,18,407,49,"Y","Y",0.875,0.5,1,8,"Breakfast","Original",8,"Original 13 17",1.75,4,8,15,10.6666666666667,1
"329","Original 13","1",3,"17",13,"M",1,0,1,1,1,1,1,0,1,1,1,18,"0","0","23",23,59,21,407,49,"Y","Y",0.875,0.5,1,9,"Breakfast","Original",9,"Original 13 17",1.75,4,9,17,11,1
"330","Original 13","1",3,"17",13,"M",1,0,1,1,1,1,1,0,1,1,1,20,"2","0","19",17,54,19,407,49,"Y","Y",0.875,0.5,1,10,"Breakfast","Original",10,"Original 13 17",1.75,4,10,18,13.6666666666667,0
"331","Original 13","1",3,"17",13,"M",1,0,1,1,1,1,1,0,1,1,1,12,"-","-","-",26,52,18,407,49,"Y","N",0.875,0.5,1,11,"Breakfast","Original",1,"Original 13 17",1.75,4,11,NA,NA,0
"332","Original 13","1",3,"17",13,"M",1,0,1,1,1,1,1,0,1,1,1,15,"-","-","-",20,43,15,407,49,"Y","N",0.875,0.5,1,12,"Breakfast","Original",2,"Original 13 17",1.75,4,12,12,13.3333333333333,0
"333","Original 13","1",3,"17",13,"M",1,0,1,1,1,1,1,0,1,1,1,15,"-","-","-",19,39,14,407,49,"Y","N",0.875,0.5,1,13,"Breakfast","Original",3,"Original 13 17",1.75,4,13,15,9.33333333333333,0
"334","Original 13","1",3,"17",13,"M",1,0,1,1,1,1,1,0,1,1,1,12,"-","-","-",22,40,14,407,49,"Y","N",0.875,0.5,1,14,"Breakfast","Original",4,"Original 13 17",1.75,4,14,15,8,0
"335","Original 13","1",3,"17",13,"M",1,0,1,1,1,1,1,0,1,1,1,13,"-","-","-",19,34,12,407,49,"Y","N",0.875,0.5,1,15,"Breakfast","Original",5,"Original 13 17",1.75,4,15,12,9.33333333333333,0
"336","Original 13","1",3,"17",13,"M",1,0,1,1,1,1,1,0,1,1,1,11,"-","-","-",20,32,11,407,49,"Y","N",0.875,0.5,1,16,"Breakfast","Original",6,"Original 13 17",1.75,4,16,13,7,0
"337","Original 13","1",3,"17",13,"M",1,0,1,1,1,1,1,0,1,1,1,12,"-","-","-",21,36,13,407,49,"Y","N",0.875,0.5,1,17,"Breakfast","Original",7,"Original 13 17",1.75,4,17,11,7,0
"338","Original 13","1",3,"17",13,"M",1,0,1,1,1,1,1,0,1,1,1,5,"-","-","-",24,26,9,407,49,"Y","N",0.875,0.5,1,18,"Breakfast","Original",8,"Original 13 17",1.75,4,18,12,8,0
"339","Original 13","1",3,"17",13,"M",1,0,1,1,1,1,1,0,1,1,1,2,"-","-","-",27,25,9,407,49,"Y","N",0.875,0.5,1,19,"Breakfast","Original",9,"Original 13 17",1.75,4,19,5,7,0
"340","Original 13","1",3,"17",13,"M",1,0,1,1,1,1,1,0,1,1,1,2,"-","-","-",25,19,7,407,49,"Y","N",0.875,0.5,1,20,"Breakfast","Original",10,"Original 13 17",1.75,4,20,2,7.66666666666667,0
"341","Original 13","1",3,"34",13,"M",1,1,2,0,0,0,1,1,1,0,0,20,"10","8","15",0,43,15,383,50,"Y","Y",0.375,1,0.166666667,1,"Breakfast","Original",1,"Original 13 34",1.75,4,1,NA,NA,0
"342","Original 13","1",3,"34",13,"M",1,1,2,0,0,0,1,1,1,0,0,5,"0","6","30",24,42,15,383,50,"Y","Y",0.375,1,0.166666667,2,"Breakfast","Original",2,"Original 13 34",1.75,4,2,20,7.66666666666667,1
"343","Original 13","1",3,"34",13,"M",1,1,2,0,0,0,1,1,1,0,0,12,"2","15","26",9,50,18,383,50,"Y","Y",0.375,1,0.166666667,3,"Breakfast","Original",3,"Original 13 34",1.75,4,3,5,12.3333333333333,1
"344","Original 13","1",3,"34",13,"M",1,1,2,0,0,0,1,1,1,0,0,15,"0","10","19",9,40,14,383,50,"Y","Y",0.375,1,0.166666667,4,"Breakfast","Original",4,"Original 13 34",1.75,4,4,12,12.6666666666667,1
"345","Original 13","1",3,"34",13,"M",1,1,2,0,0,0,1,1,1,0,0,12,"3","0","25",22,49,17,383,50,"Y","Y",0.375,1,0.166666667,5,"Breakfast","Original",5,"Original 13 34",1.75,4,5,15,8.33333333333333,1
"346","Original 13","1",3,"34",13,"M",1,1,2,0,0,0,1,1,1,0,0,13,"4","2","22",16,42,15,383,50,"Y","Y",0.375,1,0.166666667,6,"Breakfast","Original",6,"Original 13 34",1.75,4,6,12,12.3333333333333,0
"347","Original 13","1",3,"34",13,"M",1,1,2,0,0,0,1,1,1,0,0,12,"4","0","24",20,47,16,383,50,"Y","Y",0.375,1,0.166666667,7,"Breakfast","Original",7,"Original 13 34",1.75,4,7,13,9.66666666666667,1
"348","Original 13","1",3,"34",13,"M",1,1,2,0,0,0,1,1,1,0,0,12,"3","12","26",11,50,18,383,50,"Y","Y",0.375,1,0.166666667,8,"Breakfast","Original",8,"Original 13 34",1.75,4,8,12,11.6666666666667,0
"349","Original 13","1",3,"34",13,"M",1,1,2,0,0,0,1,1,1,0,0,14,"4","0","27",23,59,21,383,50,"Y","Y",0.375,1,0.166666667,9,"Breakfast","Original",9,"Original 13 34",1.75,4,9,12,12.6666666666667,1
"350","Original 13","1",3,"34",13,"M",1,1,2,0,0,0,1,1,1,0,0,14,"4","3","25",18,54,19,383,50,"Y","Y",0.375,1,0.166666667,10,"Breakfast","Original",10,"Original 13 34",1.75,4,10,14,15,0
"351","Original 13","1",3,"34",13,"M",1,1,2,0,0,0,1,1,1,0,0,15,"-","-","-",23,52,18,383,50,"Y","N",0.375,1,0.166666667,11,"Breakfast","Original",1,"Original 13 34",1.75,4,11,NA,NA,0
"352","Original 13","1",3,"34",13,"M",1,1,2,0,0,0,1,1,1,0,0,10,"-","-","-",25,43,15,383,50,"Y","N",0.375,1,0.166666667,12,"Breakfast","Original",2,"Original 13 34",1.75,4,12,15,12.3333333333333,0
"353","Original 13","1",3,"34",13,"M",1,1,2,0,0,0,1,1,1,0,0,10,"-","-","-",24,39,14,383,50,"Y","N",0.375,1,0.166666667,13,"Breakfast","Original",3,"Original 13 34",1.75,4,13,10,11,0
"354","Original 13","1",3,"34",13,"M",1,1,2,0,0,0,1,1,1,0,0,10,"-","-","-",24,40,14,383,50,"Y","N",0.375,1,0.166666667,14,"Breakfast","Original",4,"Original 13 34",1.75,4,14,10,9.66666666666667,0
"355","Original 13","1",3,"34",13,"M",1,1,2,0,0,0,1,1,1,0,0,10,"-","-","-",22,34,12,383,50,"Y","N",0.375,1,0.166666667,15,"Breakfast","Original",5,"Original 13 34",1.75,4,15,10,10,0
"356","Original 13","1",3,"34",13,"M",1,1,2,0,0,0,1,1,1,0,0,9,"-","-","-",22,32,11,383,50,"Y","N",0.375,1,0.166666667,16,"Breakfast","Original",6,"Original 13 34",1.75,4,16,10,8,0
"357","Original 13","1",3,"34",13,"M",1,1,2,0,0,0,1,1,1,0,0,9,"-","-","-",24,36,13,383,50,"Y","N",0.375,1,0.166666667,17,"Breakfast","Original",7,"Original 13 34",1.75,4,17,9,7.66666666666667,0
"358","Original 13","1",3,"34",13,"M",1,1,2,0,0,0,1,1,1,0,0,10,"-","-","-",19,26,9,383,50,"Y","N",0.375,1,0.166666667,18,"Breakfast","Original",8,"Original 13 34",1.75,4,18,9,9,0
"359","Original 13","1",3,"34",13,"M",1,1,2,0,0,0,1,1,1,0,0,8,"-","-","-",21,25,9,383,50,"Y","N",0.375,1,0.166666667,19,"Breakfast","Original",9,"Original 13 34",1.75,4,19,10,5.33333333333333,0
"360","Original 13","1",3,"34",13,"M",1,1,2,0,0,0,1,1,1,0,0,0,"-","-","-",27,19,7,383,50,"Y","N",0.375,1,0.166666667,20,"Breakfast","Original",10,"Original 13 34",1.75,4,20,8,5.66666666666667,0
"361","Original 13","1",3,"16",13,"F",1,1,2,1,1,0,0,1,1,0,0,5,"4","15","30",11,43,15,343,51,"Y","Y",0.5,0.5,0.5,1,"Breakfast","Original",1,"Original 13 16",1.75,4,1,NA,NA,0
"362","Original 13","1",3,"16",13,"F",1,1,2,1,1,0,0,1,1,0,0,15,"5","20","20",0,42,15,343,51,"Y","Y",0.5,0.5,0.5,2,"Breakfast","Original",2,"Original 13 16",1.75,4,2,5,12.6666666666667,1
"363","Original 13","1",3,"16",13,"F",1,1,2,1,1,0,0,1,1,0,0,19,"10","0","19",9,50,18,343,51,"Y","Y",0.5,0.5,0.5,3,"Breakfast","Original",3,"Original 13 16",1.75,4,3,15,9,1
"364","Original 13","1",3,"16",13,"F",1,1,2,1,1,0,0,1,1,0,0,7,"8","0","27",19,40,14,343,51,"Y","Y",0.5,0.5,0.5,4,"Breakfast","Original",4,"Original 13 16",1.75,4,4,19,10.3333333333333,0
"365","Original 13","1",3,"16",13,"F",1,1,2,1,1,0,0,1,1,0,0,17,"3","0","20",17,49,17,343,51,"Y","Y",0.5,0.5,0.5,5,"Breakfast","Original",5,"Original 13 16",1.75,4,5,7,11,0
"366","Original 13","1",3,"16",13,"F",1,1,2,1,1,0,0,1,1,0,0,9,"3","6","26",17,42,15,343,51,"Y","Y",0.5,0.5,0.5,6,"Breakfast","Original",6,"Original 13 16",1.75,4,6,17,10.6666666666667,0
"367","Original 13","1",3,"16",13,"F",1,1,2,1,1,0,0,1,1,0,0,15,"3","0","21",18,47,16,343,51,"Y","Y",0.5,0.5,0.5,7,"Breakfast","Original",7,"Original 13 16",1.75,4,7,9,11,1
"368","Original 13","1",3,"16",13,"F",1,1,2,1,1,0,0,1,1,0,0,13,"6","0","25",19,50,18,343,51,"Y","Y",0.5,0.5,0.5,8,"Breakfast","Original",8,"Original 13 16",1.75,4,8,15,10.6666666666667,0
"369","Original 13","1",3,"16",13,"F",1,1,2,1,1,0,0,1,1,0,0,20,"0","0","21",21,59,21,343,51,"Y","Y",0.5,0.5,0.5,9,"Breakfast","Original",9,"Original 13 16",1.75,4,9,13,12.3333333333333,0
"370","Original 13","1",3,"16",13,"F",1,1,2,1,1,0,0,1,1,0,0,15,"1","0","24",23,54,19,343,51,"Y","Y",0.5,0.5,0.5,10,"Breakfast","Original",10,"Original 13 16",1.75,4,10,20,13,0
"371","Original 13","1",3,"16",13,"F",1,1,2,1,1,0,0,1,1,0,0,20,"-","-","-",18,52,18,343,51,"Y","N",0.5,0.5,0.5,11,"Breakfast","Original",1,"Original 13 16",1.75,4,11,NA,NA,0
"372","Original 13","1",3,"16",13,"F",1,1,2,1,1,0,0,1,1,0,0,13,"-","-","-",22,43,15,343,51,"Y","N",0.5,0.5,0.5,12,"Breakfast","Original",2,"Original 13 16",1.75,4,12,20,10.6666666666667,0
"373","Original 13","1",3,"16",13,"F",1,1,2,1,1,0,0,1,1,0,0,9,"-","-","-",25,39,14,343,51,"Y","N",0.5,0.5,0.5,13,"Breakfast","Original",3,"Original 13 16",1.75,4,13,13,10,0
"374","Original 13","1",3,"16",13,"F",1,1,2,1,1,0,0,1,1,0,0,15,"-","-","-",19,40,14,343,51,"Y","N",0.5,0.5,0.5,14,"Breakfast","Original",4,"Original 13 16",1.75,4,14,9,10,0
"375","Original 13","1",3,"16",13,"F",1,1,2,1,1,0,0,1,1,0,0,9,"-","-","-",23,34,12,343,51,"Y","N",0.5,0.5,0.5,15,"Breakfast","Original",5,"Original 13 16",1.75,4,15,15,8.33333333333333,0
"376","Original 13","1",3,"16",13,"F",1,1,2,1,1,0,0,1,1,0,0,11,"-","-","-",20,32,11,343,51,"Y","N",0.5,0.5,0.5,16,"Breakfast","Original",6,"Original 13 16",1.75,4,16,9,8.33333333333333,0
"377","Original 13","1",3,"16",13,"F",1,1,2,1,1,0,0,1,1,0,0,15,"-","-","-",18,36,13,343,51,"Y","N",0.5,0.5,0.5,17,"Breakfast","Original",7,"Original 13 16",1.75,4,17,11,7,0
"378","Original 13","1",3,"16",13,"F",1,1,2,1,1,0,0,1,1,0,0,9,"-","-","-",20,26,9,343,51,"Y","N",0.5,0.5,0.5,18,"Breakfast","Original",8,"Original 13 16",1.75,4,18,15,7,0
"379","Original 13","1",3,"16",13,"F",1,1,2,1,1,0,0,1,1,0,0,15,"-","-","-",14,25,9,343,51,"Y","N",0.5,0.5,0.5,19,"Breakfast","Original",9,"Original 13 16",1.75,4,19,9,5.66666666666667,0
"380","Original 13","1",3,"16",13,"F",1,1,2,1,1,0,0,1,1,0,0,17,"-","-","-",10,19,7,343,51,"Y","N",0.5,0.5,0.5,20,"Breakfast","Original",10,"Original 13 16",1.75,4,20,15,3.33333333333333,0
"381","Original 13","1",3,"31",13,"F",1,0,2,1,1,1,0,1,1,1,1,8,"2","18","27",7,43,15,464,52,"Y","Y",0.875,0.5,1,1,"Breakfast","Original",1,"Original 13 31",1.75,4,1,NA,NA,0
"382","Original 13","1",3,"31",13,"F",1,0,2,1,1,1,0,1,1,1,1,10,"10","6","25",9,42,15,464,52,"Y","Y",0.875,0.5,1,2,"Breakfast","Original",2,"Original 13 31",1.75,4,2,8,11.6666666666667,1
"383","Original 13","1",3,"31",13,"F",1,0,2,1,1,1,0,1,1,1,1,9,"0","15","29",14,50,18,464,52,"Y","Y",0.875,0.5,1,3,"Breakfast","Original",3,"Original 13 31",1.75,4,3,10,10.6666666666667,1
"384","Original 13","1",3,"31",13,"F",1,0,2,1,1,1,0,1,1,1,1,9,"0","0","25",25,40,14,464,52,"Y","Y",0.875,0.5,1,4,"Breakfast","Original",4,"Original 13 31",1.75,4,4,9,13.6666666666667,1
"385","Original 13","1",3,"31",13,"F",1,0,2,1,1,1,0,1,1,1,1,8,"0","9","29",20,49,17,464,52,"Y","Y",0.875,0.5,1,5,"Breakfast","Original",5,"Original 13 31",1.75,4,5,9,10.3333333333333,0
"386","Original 13","1",3,"31",13,"F",1,0,2,1,1,1,0,1,1,1,1,7,"0","9","28",19,42,15,464,52,"Y","Y",0.875,0.5,1,6,"Breakfast","Original",6,"Original 13 31",1.75,4,6,8,13.6666666666667,1
"387","Original 13","1",3,"31",13,"F",1,0,2,1,1,1,0,1,1,1,1,5,"0","15","31",16,47,16,464,52,"Y","Y",0.875,0.5,1,7,"Breakfast","Original",7,"Original 13 31",1.75,4,7,7,11.6666666666667,1
"388","Original 13","1",3,"31",13,"F",1,0,2,1,1,1,0,1,1,1,1,8,"1","12","30",17,50,18,464,52,"Y","Y",0.875,0.5,1,8,"Breakfast","Original",8,"Original 13 31",1.75,4,8,5,14,1
"389","Original 13","1",3,"31",13,"F",1,0,2,1,1,1,0,1,1,1,1,7,"0","12","34",22,59,21,464,52,"Y","Y",0.875,0.5,1,9,"Breakfast","Original",9,"Original 13 31",1.75,4,9,8,14,1
"390","Original 13","1",3,"31",13,"F",1,0,2,1,1,1,0,1,1,1,1,5,"0","18","34",16,54,19,464,52,"Y","Y",0.875,0.5,1,10,"Breakfast","Original",10,"Original 13 31",1.75,4,10,7,17.3333333333333,1
"391","Original 13","1",3,"31",13,"F",1,0,2,1,1,1,0,1,1,1,1,5,"-","-","-",33,52,18,464,52,"Y","N",0.875,0.5,1,11,"Breakfast","Original",1,"Original 13 31",1.75,4,11,NA,NA,0
"392","Original 13","1",3,"31",13,"F",1,0,2,1,1,1,0,1,1,1,1,5,"-","-","-",30,43,15,464,52,"Y","N",0.875,0.5,1,12,"Breakfast","Original",2,"Original 13 31",1.75,4,12,5,15.6666666666667,0
"393","Original 13","1",3,"31",13,"F",1,0,2,1,1,1,0,1,1,1,1,5,"-","-","-",29,39,14,464,52,"Y","N",0.875,0.5,1,13,"Breakfast","Original",3,"Original 13 31",1.75,4,13,5,12.6666666666667,0
"394","Original 13","1",3,"31",13,"F",1,0,2,1,1,1,0,1,1,1,1,3,"-","-","-",31,40,14,464,52,"Y","N",0.875,0.5,1,14,"Breakfast","Original",4,"Original 13 31",1.75,4,14,5,11.3333333333333,0
"395","Original 13","1",3,"31",13,"F",1,0,2,1,1,1,0,1,1,1,1,2,"-","-","-",30,34,12,464,52,"Y","N",0.875,0.5,1,15,"Breakfast","Original",5,"Original 13 31",1.75,4,15,3,12.3333333333333,0
"396","Original 13","1",3,"31",13,"F",1,0,2,1,1,1,0,1,1,1,1,1,"-","-","-",30,32,11,464,52,"Y","N",0.875,0.5,1,16,"Breakfast","Original",6,"Original 13 31",1.75,4,16,2,10.6666666666667,0
"397","Original 13","1",3,"31",13,"F",1,0,2,1,1,1,0,1,1,1,1,0,"-","-","-",33,36,13,464,52,"Y","N",0.875,0.5,1,17,"Breakfast","Original",7,"Original 13 31",1.75,4,17,1,10.3333333333333,0
"398","Original 13","1",3,"31",13,"F",1,0,2,1,1,1,0,1,1,1,1,2,"-","-","-",27,26,9,464,52,"Y","N",0.875,0.5,1,18,"Breakfast","Original",8,"Original 13 31",1.75,4,18,0,12,0
"399","Original 13","1",3,"31",13,"F",1,0,2,1,1,1,0,1,1,1,1,0,"-","-","-",29,25,9,464,52,"Y","N",0.875,0.5,1,19,"Breakfast","Original",9,"Original 13 31",1.75,4,19,2,8,0
"400","Original 13","1",3,"31",13,"F",1,0,2,1,1,1,0,1,1,1,1,0,"-","-","-",27,19,7,464,52,"Y","N",0.875,0.5,1,20,"Breakfast","Original",10,"Original 13 31",1.75,4,20,0,8.33333333333333,0
"401","Original 14","1",3,"35",14,"F",1,0,2,0,1,0,0,1,1,1,0,5,"0","33","28",0,36,13,425,53,"Y","Y",0.5,0.5,0.5,1,"Breakfast","Original",1,"Original 14 35",3.25,4,1,NA,NA,0
"402","Original 14","1",3,"35",14,"F",1,0,2,0,1,0,0,1,1,1,0,10,"1","6","27",20,48,17,425,53,"Y","Y",0.5,0.5,0.5,2,"Breakfast","Original",2,"Original 14 35",3.25,4,2,5,10.3333333333333,1
"403","Original 14","1",3,"35",14,"F",1,0,2,0,1,0,0,1,1,1,0,11,"0","12","27",15,50,18,425,53,"Y","Y",0.5,0.5,0.5,3,"Breakfast","Original",3,"Original 14 35",3.25,4,3,10,12.6666666666667,1
"404","Original 14","1",3,"35",14,"F",1,0,2,0,1,0,0,1,1,1,0,15,"1","0","25",24,57,20,425,53,"Y","Y",0.5,0.5,0.5,4,"Breakfast","Original",4,"Original 14 35",3.25,4,4,11,13,1
"405","Original 14","1",3,"35",14,"F",1,0,2,0,1,0,0,1,1,1,0,14,"1","10","24",13,51,18,425,53,"Y","Y",0.5,0.5,0.5,5,"Breakfast","Original",5,"Original 14 35",3.25,4,5,15,14,0
"406","Original 14","1",3,"35",14,"F",1,0,2,0,1,0,0,1,1,1,0,15,"1","0","23",22,50,18,425,53,"Y","Y",0.5,0.5,0.5,6,"Breakfast","Original",6,"Original 14 35",3.25,4,6,14,12.3333333333333,1
"407","Original 14","1",3,"35",14,"F",1,0,2,0,1,0,0,1,1,1,0,14,"2","0","22",20,47,16,425,53,"Y","Y",0.5,0.5,0.5,7,"Breakfast","Original",7,"Original 14 35",3.25,4,7,15,11.6666666666667,0
"408","Original 14","1",3,"35",14,"F",1,0,2,0,1,0,0,1,1,1,0,14,"2","0","21",19,43,15,425,53,"Y","Y",0.5,0.5,0.5,8,"Breakfast","Original",8,"Original 14 35",3.25,4,8,14,11,0
"409","Original 14","1",3,"35",14,"F",1,0,2,0,1,0,0,1,1,1,0,13,"0","9","28",19,61,21,425,53,"Y","Y",0.5,0.5,0.5,9,"Breakfast","Original",9,"Original 14 35",3.25,4,9,14,9.66666666666667,0
"410","Original 14","1",3,"35",14,"F",1,0,2,0,1,0,0,1,1,1,0,15,"1","0","22",21,48,17,425,53,"Y","Y",0.5,0.5,0.5,10,"Breakfast","Original",10,"Original 14 35",3.25,4,10,13,16,1
"411","Original 14","1",3,"35",14,"F",1,0,2,0,1,0,0,1,1,1,0,5,"-","-","-",26,31,11,425,53,"Y","N",0.5,0.5,0.5,11,"Breakfast","Original",1,"Original 14 35",3.25,4,11,NA,NA,0
"412","Original 14","1",3,"35",14,"F",1,0,2,0,1,0,0,1,1,1,0,2,"-","-","-",25,19,7,425,53,"Y","N",0.5,0.5,0.5,12,"Breakfast","Original",2,"Original 14 35",3.25,4,12,5,8.66666666666667,0
"413","Original 14","1",3,"35",14,"F",1,0,2,0,1,0,0,1,1,1,0,0,"-","-","-",26,18,6,425,53,"Y","N",0.5,0.5,0.5,13,"Breakfast","Original",3,"Original 14 35",3.25,4,13,2,5.66666666666667,0
"414","Original 14","1",3,"35",14,"F",1,0,2,0,1,0,0,1,1,1,0,1,"-","-","-",25,16,6,425,53,"Y","N",0.5,0.5,0.5,14,"Breakfast","Original",4,"Original 14 35",3.25,4,14,0,6,0
"415","Original 14","1",3,"35",14,"F",1,0,2,0,1,0,0,1,1,1,0,0,"-","-","-",31,31,11,425,53,"Y","N",0.5,0.5,0.5,15,"Breakfast","Original",5,"Original 14 35",3.25,4,15,1,5,0
"416","Original 14","1",3,"35",14,"F",1,0,2,0,1,0,0,1,1,1,0,0,"-","-","-",24,11,4,425,53,"Y","N",0.5,0.5,0.5,16,"Breakfast","Original",6,"Original 14 35",3.25,4,16,0,10.3333333333333,0
"417","Original 14","1",3,"35",14,"F",1,0,2,0,1,0,0,1,1,1,0,1,"-","-","-",25,16,6,425,53,"Y","N",0.5,0.5,0.5,17,"Breakfast","Original",7,"Original 14 35",3.25,4,17,0,3.66666666666667,0
"418","Original 14","1",3,"35",14,"F",1,0,2,0,1,0,0,1,1,1,0,0,"-","-","-",24,10,4,425,53,"Y","N",0.5,0.5,0.5,18,"Breakfast","Original",8,"Original 14 35",3.25,4,18,1,5,0
"419","Original 14","1",3,"35",14,"F",1,0,2,0,1,0,0,1,1,1,0,0,"-","-","-",23,9,3,425,53,"Y","N",0.5,0.5,0.5,19,"Breakfast","Original",9,"Original 14 35",3.25,4,19,0,3.33333333333333,0
"420","Original 14","1",3,"35",14,"F",1,0,2,0,1,0,0,1,1,1,0,1,"-","-","-",23,11,4,425,53,"Y","N",0.5,0.5,0.5,20,"Breakfast","Original",10,"Original 14 35",3.25,4,20,0,3,0
"421","Original 14","1",3,"36",14,"M",1,1,7,1,0,1,0,0,1,1,1,10,"7","0","23",16,36,13,343,54,"Y","Y",0.625,0,0.833333333,1,"Breakfast","Original",1,"Original 14 36",3.25,4,1,NA,NA,0
"422","Original 14","1",3,"36",14,"M",1,1,7,1,0,1,0,0,1,1,1,15,"0","2","22",20,48,17,343,54,"Y","Y",0.625,0,0.833333333,2,"Breakfast","Original",2,"Original 14 36",3.25,4,2,10,8.66666666666667,0
"423","Original 14","1",3,"36",14,"M",1,1,7,1,0,1,0,0,1,1,1,15,"0","0","23",23,50,18,343,54,"Y","Y",0.625,0,0.833333333,3,"Breakfast","Original",3,"Original 14 36",3.25,4,3,15,11,1
"424","Original 14","1",3,"36",14,"M",1,1,7,1,0,1,0,0,1,1,1,15,"0","0","25",25,57,20,343,54,"Y","Y",0.625,0,0.833333333,4,"Breakfast","Original",4,"Original 14 36",3.25,4,4,15,11.6666666666667,0
"425","Original 14","1",3,"36",14,"M",1,1,7,1,0,1,0,0,1,1,1,15,"2","12","23",9,51,18,343,54,"Y","Y",0.625,0,0.833333333,5,"Breakfast","Original",5,"Original 14 36",3.25,4,5,15,14,0
"426","Original 14","1",3,"36",14,"M",1,1,7,1,0,1,0,0,1,1,1,15,"1","0","23",22,50,18,343,54,"Y","Y",0.625,0,0.833333333,6,"Breakfast","Original",6,"Original 14 36",3.25,4,6,15,12,1
"427","Original 14","1",3,"36",14,"M",1,1,7,1,0,1,0,0,1,1,1,15,"1","0","21",20,47,16,343,54,"Y","Y",0.625,0,0.833333333,7,"Breakfast","Original",7,"Original 14 36",3.25,4,7,15,11.6666666666667,0
"428","Original 14","1",3,"36",14,"M",1,1,7,1,0,1,0,0,1,1,1,15,"3","0","20",17,43,15,343,54,"Y","Y",0.625,0,0.833333333,8,"Breakfast","Original",8,"Original 14 36",3.25,4,8,15,10.6666666666667,0
"429","Original 14","1",3,"36",14,"M",1,1,7,1,0,1,0,0,1,1,1,15,"0","3","26",23,61,21,343,54,"Y","Y",0.625,0,0.833333333,9,"Breakfast","Original",9,"Original 14 36",3.25,4,9,15,9.33333333333333,0
"430","Original 14","1",3,"36",14,"M",1,1,7,1,0,1,0,0,1,1,1,20,"5","0","17",12,48,17,343,54,"Y","Y",0.625,0,0.833333333,10,"Breakfast","Original",10,"Original 14 36",3.25,4,10,15,15.3333333333333,1
"431","Original 14","1",3,"36",14,"M",1,1,7,1,0,1,0,0,1,1,1,15,"-","-","-",16,31,11,343,54,"Y","N",0.625,0,0.833333333,11,"Breakfast","Original",1,"Original 14 36",3.25,4,11,NA,NA,0
"432","Original 14","1",3,"36",14,"M",1,1,7,1,0,1,0,0,1,1,1,15,"-","-","-",12,19,7,343,54,"Y","N",0.625,0,0.833333333,12,"Breakfast","Original",2,"Original 14 36",3.25,4,12,15,5.33333333333333,0
"433","Original 14","1",3,"36",14,"M",1,1,7,1,0,1,0,0,1,1,1,12,"-","-","-",14,18,6,343,54,"Y","N",0.625,0,0.833333333,13,"Breakfast","Original",3,"Original 14 36",3.25,4,13,15,1.33333333333333,0
"434","Original 14","1",3,"36",14,"M",1,1,7,1,0,1,0,0,1,1,1,12,"-","-","-",14,16,6,343,54,"Y","N",0.625,0,0.833333333,14,"Breakfast","Original",4,"Original 14 36",3.25,4,14,12,2,0
"435","Original 14","1",3,"36",14,"M",1,1,7,1,0,1,0,0,1,1,1,10,"-","-","-",21,31,11,343,54,"Y","N",0.625,0,0.833333333,15,"Breakfast","Original",5,"Original 14 36",3.25,4,15,12,1.33333333333333,0
"436","Original 14","1",3,"36",14,"M",1,1,7,1,0,1,0,0,1,1,1,10,"-","-","-",14,11,4,343,54,"Y","N",0.625,0,0.833333333,16,"Breakfast","Original",6,"Original 14 36",3.25,4,16,10,7,0
"437","Original 14","1",3,"36",14,"M",1,1,7,1,0,1,0,0,1,1,1,10,"-","-","-",16,16,6,343,54,"Y","N",0.625,0,0.833333333,17,"Breakfast","Original",7,"Original 14 36",3.25,4,17,10,0.333333333333333,0
"438","Original 14","1",3,"36",14,"M",1,1,7,1,0,1,0,0,1,1,1,10,"-","-","-",14,10,4,343,54,"Y","N",0.625,0,0.833333333,18,"Breakfast","Original",8,"Original 14 36",3.25,4,18,10,2,0
"439","Original 14","1",3,"36",14,"M",1,1,7,1,0,1,0,0,1,1,1,6,"-","-","-",17,9,3,343,54,"Y","N",0.625,0,0.833333333,19,"Breakfast","Original",9,"Original 14 36",3.25,4,19,10,0,0
"440","Original 14","1",3,"36",14,"M",1,1,7,1,0,1,0,0,1,1,1,6,"-","-","-",18,11,4,343,54,"Y","N",0.625,0,0.833333333,20,"Breakfast","Original",10,"Original 14 36",3.25,4,20,6,1,0
"441","Original 14","1",3,"20",14,"F",1,1,1,0,0,0,1,0,1,1,1,10,"5","2","23",16,36,13,373,55,"Y","Y",0.5,0.5,0.5,1,"Breakfast","Original",1,"Original 14 20",3.25,4,1,NA,NA,0
"442","Original 14","1",3,"20",14,"F",1,1,1,0,0,0,1,0,1,1,1,12,"3","0","25",22,48,17,373,55,"Y","Y",0.5,0.5,0.5,2,"Breakfast","Original",2,"Original 14 20",3.25,4,2,10,8.66666666666667,1
"443","Original 14","1",3,"20",14,"F",1,1,1,0,0,0,1,0,1,1,1,12,"4","0","26",22,50,18,373,55,"Y","Y",0.5,0.5,0.5,3,"Breakfast","Original",3,"Original 14 20",3.25,4,3,12,12,0
"444","Original 14","1",3,"20",14,"F",1,1,1,0,0,0,1,0,1,1,1,15,"2","0","25",23,57,20,373,55,"Y","Y",0.5,0.5,0.5,4,"Breakfast","Original",4,"Original 14 20",3.25,4,4,12,12.6666666666667,0
"445","Original 14","1",3,"20",14,"F",1,1,1,0,0,0,1,0,1,1,1,8,"16","12","30",2,51,18,373,55,"Y","Y",0.5,0.5,0.5,5,"Breakfast","Original",5,"Original 14 20",3.25,4,5,15,14,0
"446","Original 14","1",3,"20",14,"F",1,1,1,0,0,0,1,0,1,1,1,6,"0","12","32",20,50,18,373,55,"Y","Y",0.5,0.5,0.5,6,"Breakfast","Original",6,"Original 14 20",3.25,4,6,8,14.3333333333333,1
"447","Original 14","1",3,"20",14,"F",1,1,1,0,0,0,1,0,1,1,1,5,"1","15","31",15,47,16,373,55,"Y","Y",0.5,0.5,0.5,7,"Breakfast","Original",7,"Original 14 20",3.25,4,7,6,14.6666666666667,1
"448","Original 14","1",3,"20",14,"F",1,1,1,0,0,0,1,0,1,1,1,2,"0","15","33",18,43,15,373,55,"Y","Y",0.5,0.5,0.5,8,"Breakfast","Original",8,"Original 14 20",3.25,4,8,5,14,1
"449","Original 14","1",3,"20",14,"F",1,1,1,0,0,0,1,0,1,1,1,20,"6","0","21",15,61,21,373,55,"Y","Y",0.5,0.5,0.5,9,"Breakfast","Original",9,"Original 14 20",3.25,4,9,2,13.6666666666667,1
"450","Original 14","1",3,"20",14,"F",1,1,1,0,0,0,1,0,1,1,1,0,"2","32","37",3,48,17,373,55,"Y","Y",0.5,0.5,0.5,10,"Breakfast","Original",10,"Original 14 20",3.25,4,10,20,13.6666666666667,0
"451","Original 14","1",3,"20",14,"F",1,1,1,0,0,0,1,0,1,1,1,10,"-","-","-",21,31,11,373,55,"Y","N",0.5,0.5,0.5,11,"Breakfast","Original",1,"Original 14 20",3.25,4,11,NA,NA,0
"452","Original 14","1",3,"20",14,"F",1,1,1,0,0,0,1,0,1,1,1,0,"-","-","-",27,19,7,373,55,"Y","N",0.5,0.5,0.5,12,"Breakfast","Original",2,"Original 14 20",3.25,4,12,10,7,0
"453","Original 14","1",3,"20",14,"F",1,1,1,0,0,0,1,0,1,1,1,5,"-","-","-",21,18,6,373,55,"Y","N",0.5,0.5,0.5,13,"Breakfast","Original",3,"Original 14 20",3.25,4,13,0,6.33333333333333,0
"454","Original 14","1",3,"20",14,"F",1,1,1,0,0,0,1,0,1,1,1,0,"-","-","-",26,16,6,373,55,"Y","N",0.5,0.5,0.5,14,"Breakfast","Original",4,"Original 14 20",3.25,4,14,5,4.33333333333333,0
"455","Original 14","1",3,"20",14,"F",1,1,1,0,0,0,1,0,1,1,1,20,"-","-","-",11,31,11,373,55,"Y","N",0.5,0.5,0.5,15,"Breakfast","Original",5,"Original 14 20",3.25,4,15,0,5.33333333333333,0
"456","Original 14","1",3,"20",14,"F",1,1,1,0,0,0,1,0,1,1,1,1,"-","-","-",23,11,4,373,55,"Y","N",0.5,0.5,0.5,16,"Breakfast","Original",6,"Original 14 20",3.25,4,16,20,3.66666666666667,0
"457","Original 14","1",3,"20",14,"F",1,1,1,0,0,0,1,0,1,1,1,4,"-","-","-",22,16,6,373,55,"Y","N",0.5,0.5,0.5,17,"Breakfast","Original",7,"Original 14 20",3.25,4,17,1,3.33333333333333,0
"458","Original 14","1",3,"20",14,"F",1,1,1,0,0,0,1,0,1,1,1,0,"-","-","-",24,10,4,373,55,"Y","N",0.5,0.5,0.5,18,"Breakfast","Original",8,"Original 14 20",3.25,4,18,4,4,0
"459","Original 14","1",3,"20",14,"F",1,1,1,0,0,0,1,0,1,1,1,2,"-","-","-",21,9,3,373,55,"Y","N",0.5,0.5,0.5,19,"Breakfast","Original",9,"Original 14 20",3.25,4,19,0,3.33333333333333,0
"460","Original 14","1",3,"20",14,"F",1,1,1,0,0,0,1,0,1,1,1,3,"-","-","-",21,11,4,373,55,"Y","N",0.5,0.5,0.5,20,"Breakfast","Original",10,"Original 14 20",3.25,4,20,2,2.33333333333333,0
"461","Original 14","1",3,"32",14,"M",1,1,3,1,1,1,1,0,1,1,1,11,"1","2","22",19,36,13,444,56,"Y","Y",0.875,0.5,1,1,"Breakfast","Original",1,"Original 14 32",3.25,4,1,NA,NA,0
"462","Original 14","1",3,"32",14,"M",1,1,3,1,1,1,1,0,1,1,1,11,"1","6","26",19,48,17,444,56,"Y","Y",0.875,0.5,1,2,"Breakfast","Original",2,"Original 14 32",3.25,4,2,11,8.33333333333333,1
"463","Original 14","1",3,"32",14,"M",1,1,3,1,1,1,1,0,1,1,1,12,"1","3","26",22,50,18,444,56,"Y","Y",0.875,0.5,1,3,"Breakfast","Original",3,"Original 14 32",3.25,4,3,11,12.3333333333333,1
"464","Original 14","1",3,"32",14,"M",1,1,3,1,1,1,1,0,1,1,1,12,"0","9","28",19,57,20,444,56,"Y","Y",0.875,0.5,1,4,"Breakfast","Original",4,"Original 14 32",3.25,4,4,12,12.6666666666667,1
"465","Original 14","1",3,"32",14,"M",1,1,3,1,1,1,1,0,1,1,1,14,"1","10","24",13,51,18,444,56,"Y","Y",0.875,0.5,1,5,"Breakfast","Original",5,"Original 14 32",3.25,4,5,12,15,1
"466","Original 14","1",3,"32",14,"M",1,1,3,1,1,1,1,0,1,1,1,14,"2","0","24",22,50,18,444,56,"Y","Y",0.875,0.5,1,6,"Breakfast","Original",6,"Original 14 32",3.25,4,6,14,12.3333333333333,1
"467","Original 14","1",3,"32",14,"M",1,1,3,1,1,1,1,0,1,1,1,13,"2","2","23",19,47,16,444,56,"Y","Y",0.875,0.5,1,7,"Breakfast","Original",7,"Original 14 32",3.25,4,7,14,12,0
"468","Original 14","1",3,"32",14,"M",1,1,3,1,1,1,1,0,1,1,1,12,"1","2","23",20,43,15,444,56,"Y","Y",0.875,0.5,1,8,"Breakfast","Original",8,"Original 14 32",3.25,4,8,13,11.3333333333333,1
"469","Original 14","1",3,"32",14,"M",1,1,3,1,1,1,1,0,1,1,1,13,"0","6","28",22,61,21,444,56,"Y","Y",0.875,0.5,1,9,"Breakfast","Original",9,"Original 14 32",3.25,4,9,12,10.3333333333333,1
"470","Original 14","1",3,"32",14,"M",1,1,3,1,1,1,1,0,1,1,1,13,"2","4","24",18,48,17,444,56,"Y","Y",0.875,0.5,1,10,"Breakfast","Original",10,"Original 14 32",3.25,4,10,13,16,1
"471","Original 14","1",3,"32",14,"M",1,1,3,1,1,1,1,0,1,1,1,1,"-","-","-",30,31,11,444,56,"Y","N",0.875,0.5,1,11,"Breakfast","Original",1,"Original 14 32",3.25,4,11,NA,NA,0
"472","Original 14","1",3,"32",14,"M",1,1,3,1,1,1,1,0,1,1,1,2,"-","-","-",25,19,7,444,56,"Y","N",0.875,0.5,1,12,"Breakfast","Original",2,"Original 14 32",3.25,4,12,1,10,0
"473","Original 14","1",3,"32",14,"M",1,1,3,1,1,1,1,0,1,1,1,1,"-","-","-",25,18,6,444,56,"Y","N",0.875,0.5,1,13,"Breakfast","Original",3,"Original 14 32",3.25,4,13,2,5.66666666666667,0
"474","Original 14","1",3,"32",14,"M",1,1,3,1,1,1,1,0,1,1,1,3,"-","-","-",23,16,6,444,56,"Y","N",0.875,0.5,1,14,"Breakfast","Original",4,"Original 14 32",3.25,4,14,1,5.66666666666667,0
"475","Original 14","1",3,"32",14,"M",1,1,3,1,1,1,1,0,1,1,1,1,"-","-","-",30,31,11,444,56,"Y","N",0.875,0.5,1,15,"Breakfast","Original",5,"Original 14 32",3.25,4,15,3,4.33333333333333,0
"476","Original 14","1",3,"32",14,"M",1,1,3,1,1,1,1,0,1,1,1,0,"-","-","-",24,11,4,444,56,"Y","N",0.875,0.5,1,16,"Breakfast","Original",6,"Original 14 32",3.25,4,16,1,10,0
"477","Original 14","1",3,"32",14,"M",1,1,3,1,1,1,1,0,1,1,1,1,"-","-","-",25,16,6,444,56,"Y","N",0.875,0.5,1,17,"Breakfast","Original",7,"Original 14 32",3.25,4,17,0,3.66666666666667,0
"478","Original 14","1",3,"32",14,"M",1,1,3,1,1,1,1,0,1,1,1,0,"-","-","-",24,10,4,444,56,"Y","N",0.875,0.5,1,18,"Breakfast","Original",8,"Original 14 32",3.25,4,18,1,5,0
"479","Original 14","1",3,"32",14,"M",1,1,3,1,1,1,1,0,1,1,1,1,"-","-","-",22,9,3,444,56,"Y","N",0.875,0.5,1,19,"Breakfast","Original",9,"Original 14 32",3.25,4,19,0,3.33333333333333,0
"480","Original 14","1",3,"32",14,"M",1,1,3,1,1,1,1,0,1,1,1,1,"-","-","-",23,11,4,444,56,"Y","N",0.875,0.5,1,20,"Breakfast","Original",10,"Original 14 32",3.25,4,20,1,2.66666666666667,0
"481","Original 15","0",4,"28",15,"F",0,1,8,0,1,0,0,0,0,1,0,20,"13","0","15",2,43,15,358,57,"Y","Y",0.25,0,0.333333333,1,"No Breakfast","Original",1,"Original 15 28",5.5,0,1,NA,NA,0
"482","Original 15","0",4,"28",15,"F",0,1,8,0,1,0,0,0,0,1,0,5,"0","24","27",3,35,12,358,57,"Y","Y",0.25,0,0.333333333,2,"No Breakfast","Original",2,"Original 15 28",5.5,0,2,20,7.66666666666667,0
"483","Original 15","0",4,"28",15,"F",0,1,8,0,1,0,0,0,0,1,0,12,"0","4","23",19,42,15,358,57,"Y","Y",0.25,0,0.333333333,3,"No Breakfast","Original",3,"Original 15 28",5.5,0,3,5,10,1
"484","Original 15","0",4,"28",15,"F",0,1,8,0,1,0,0,0,0,1,0,14,"2","2","21",17,44,15,358,57,"Y","Y",0.25,0,0.333333333,4,"No Breakfast","Original",4,"Original 15 28",5.5,0,4,12,10,1
"485","Original 15","0",4,"28",15,"F",0,1,8,0,1,0,0,0,0,1,0,11,"0","0","25",25,47,16,358,57,"Y","Y",0.25,0,0.333333333,5,"No Breakfast","Original",5,"Original 15 28",5.5,0,5,14,10,1
"486","Original 15","0",4,"28",15,"F",0,1,8,0,1,0,0,0,0,1,0,10,"0","0","24",24,41,14,358,57,"Y","Y",0.25,0,0.333333333,6,"No Breakfast","Original",6,"Original 15 28",5.5,0,6,11,12,0
"487","Original 15","0",4,"28",15,"F",0,1,8,0,1,0,0,0,0,1,0,12,"0","0","24",24,45,16,358,57,"Y","Y",0.25,0,0.333333333,7,"No Breakfast","Original",7,"Original 15 28",5.5,0,7,10,10.3333333333333,0
"488","Original 15","0",4,"28",15,"F",0,1,8,0,1,0,0,0,0,1,0,15,"0","0","21",21,47,16,358,57,"Y","Y",0.25,0,0.333333333,8,"No Breakfast","Original",8,"Original 15 28",5.5,0,8,12,11,0
"489","Original 15","0",4,"28",15,"F",0,1,8,0,1,0,0,0,0,1,0,16,"0","0","21",21,48,17,358,57,"Y","Y",0.25,0,0.333333333,9,"No Breakfast","Original",9,"Original 15 28",5.5,0,9,15,10.6666666666667,0
"490","Original 15","0",4,"28",15,"F",0,1,8,0,1,0,0,0,0,1,0,12,"0","0","25",25,48,17,358,57,"Y","Y",0.25,0,0.333333333,10,"No Breakfast","Original",10,"Original 15 28",5.5,0,10,16,10.6666666666667,0
"491","Original 15","0",4,"28",15,"F",0,1,8,0,1,0,0,0,0,1,0,12,"-","-","-",23,42,15,358,57,"Y","N",0.25,0,0.333333333,11,"No Breakfast","Original",1,"Original 15 28",5.5,0,11,NA,NA,0
"492","Original 15","0",4,"28",15,"F",0,1,8,0,1,0,0,0,0,1,0,12,"-","-","-",21,36,13,358,57,"Y","N",0.25,0,0.333333333,12,"No Breakfast","Original",2,"Original 15 28",5.5,0,12,12,10,0
"493","Original 15","0",4,"28",15,"F",0,1,8,0,1,0,0,0,0,1,0,11,"-","-","-",20,30,11,358,57,"Y","N",0.25,0,0.333333333,13,"No Breakfast","Original",3,"Original 15 28",5.5,0,13,12,8,0
"494","Original 15","0",4,"28",15,"F",0,1,8,0,1,0,0,0,0,1,0,13,"-","-","-",19,34,12,358,57,"Y","N",0.25,0,0.333333333,14,"No Breakfast","Original",4,"Original 15 28",5.5,0,14,11,6.33333333333333,0
"495","Original 15","0",4,"28",15,"F",0,1,8,0,1,0,0,0,0,1,0,12,"-","-","-",20,35,12,358,57,"Y","N",0.25,0,0.333333333,15,"No Breakfast","Original",5,"Original 15 28",5.5,0,15,13,7,0
"496","Original 15","0",4,"28",15,"F",0,1,8,0,1,0,0,0,0,1,0,11,"-","-","-",19,29,10,358,57,"Y","N",0.25,0,0.333333333,16,"No Breakfast","Original",6,"Original 15 28",5.5,0,16,12,7.66666666666667,0
"497","Original 15","0",4,"28",15,"F",0,1,8,0,1,0,0,0,0,1,0,12,"-","-","-",16,23,8,358,57,"Y","N",0.25,0,0.333333333,17,"No Breakfast","Original",7,"Original 15 28",5.5,0,17,11,6,0
"498","Original 15","0",4,"28",15,"F",0,1,8,0,1,0,0,0,0,1,0,18,"-","-","-",12,27,10,358,57,"Y","N",0.25,0,0.333333333,18,"No Breakfast","Original",8,"Original 15 28",5.5,0,18,12,3.66666666666667,0
"499","Original 15","0",4,"28",15,"F",0,1,8,0,1,0,0,0,0,1,0,20,"-","-","-",11,30,11,358,57,"Y","N",0.25,0,0.333333333,19,"No Breakfast","Original",9,"Original 15 28",5.5,0,19,18,3,0
"500","Original 15","0",4,"28",15,"F",0,1,8,0,1,0,0,0,0,1,0,9,"-","-","-",16,14,5,358,57,"Y","N",0.25,0,0.333333333,20,"No Breakfast","Original",10,"Original 15 28",5.5,0,20,20,3.33333333333333,0
"501","Original 15","0",4,"21",15,"F",0,0,4,0,1,0,1,0,1,1,1,8,"3","12","27",12,43,15,459,58,"Y","Y",0.625,0.5,0.666666667,1,"No Breakfast","Original",1,"Original 15 21",5.5,0,1,NA,NA,0
"502","Original 15","0",4,"21",15,"F",0,0,4,0,1,0,1,0,1,1,1,10,"9","0","22",13,35,12,459,58,"Y","Y",0.625,0.5,0.666666667,2,"No Breakfast","Original",2,"Original 15 21",5.5,0,2,8,11.6666666666667,1
"503","Original 15","0",4,"21",15,"F",0,0,4,0,1,0,1,0,1,1,1,10,"6","0","25",19,42,15,459,58,"Y","Y",0.625,0.5,0.666666667,3,"No Breakfast","Original",3,"Original 15 21",5.5,0,3,10,8.33333333333333,0
"504","Original 15","0",4,"21",15,"F",0,0,4,0,1,0,1,0,1,1,1,10,"0","6","25",19,44,15,459,58,"Y","Y",0.625,0.5,0.666666667,4,"No Breakfast","Original",4,"Original 15 21",5.5,0,4,10,10.6666666666667,0
"505","Original 15","0",4,"21",15,"F",0,0,4,0,1,0,1,0,1,1,1,10,"0","3","26",23,47,16,459,58,"Y","Y",0.625,0.5,0.666666667,5,"No Breakfast","Original",5,"Original 15 21",5.5,0,5,10,11.3333333333333,1
"506","Original 15","0",4,"21",15,"F",0,0,4,0,1,0,1,0,1,1,1,12,"0","0","22",22,41,14,459,58,"Y","Y",0.625,0.5,0.666666667,6,"No Breakfast","Original",6,"Original 15 21",5.5,0,6,10,12.3333333333333,1
"507","Original 15","0",4,"21",15,"F",0,0,4,0,1,0,1,0,1,1,1,11,"0","0","25",25,45,16,459,58,"Y","Y",0.625,0.5,0.666666667,7,"No Breakfast","Original",7,"Original 15 21",5.5,0,7,12,9.66666666666667,0
"508","Original 15","0",4,"21",15,"F",0,0,4,0,1,0,1,0,1,1,1,11,"0","3","25",22,47,16,459,58,"Y","Y",0.625,0.5,0.666666667,8,"No Breakfast","Original",8,"Original 15 21",5.5,0,8,11,11.3333333333333,0
"509","Original 15","0",4,"21",15,"F",0,0,4,0,1,0,1,0,1,1,1,11,"0","0","26",26,48,17,459,58,"Y","Y",0.625,0.5,0.666666667,9,"No Breakfast","Original",9,"Original 15 21",5.5,0,9,11,12,1
"510","Original 15","0",4,"21",15,"F",0,0,4,0,1,0,1,0,1,1,1,11,"0","0","26",26,48,17,459,58,"Y","Y",0.625,0.5,0.666666667,10,"No Breakfast","Original",10,"Original 15 21",5.5,0,10,11,12.3333333333333,0
"511","Original 15","0",4,"21",15,"F",0,0,4,0,1,0,1,0,1,1,1,10,"-","-","-",25,42,15,459,58,"Y","N",0.625,0.5,0.666666667,11,"No Breakfast","Original",1,"Original 15 21",5.5,0,11,NA,NA,0
"512","Original 15","0",4,"21",15,"F",0,0,4,0,1,0,1,0,1,1,1,10,"-","-","-",23,36,13,459,58,"Y","N",0.625,0.5,0.666666667,12,"No Breakfast","Original",2,"Original 15 21",5.5,0,12,10,10.6666666666667,0
"513","Original 15","0",4,"21",15,"F",0,0,4,0,1,0,1,0,1,1,1,8,"-","-","-",23,30,11,459,58,"Y","N",0.625,0.5,0.666666667,13,"No Breakfast","Original",3,"Original 15 21",5.5,0,13,10,8.66666666666667,0
"514","Original 15","0",4,"21",15,"F",0,0,4,0,1,0,1,0,1,1,1,6,"-","-","-",26,34,12,459,58,"Y","N",0.625,0.5,0.666666667,14,"No Breakfast","Original",4,"Original 15 21",5.5,0,14,8,7.33333333333333,0
"515","Original 15","0",4,"21",15,"F",0,0,4,0,1,0,1,0,1,1,1,6,"-","-","-",26,35,12,459,58,"Y","N",0.625,0.5,0.666666667,15,"No Breakfast","Original",5,"Original 15 21",5.5,0,15,6,9.33333333333333,0
"516","Original 15","0",4,"21",15,"F",0,0,4,0,1,0,1,0,1,1,1,6,"-","-","-",24,29,10,459,58,"Y","N",0.625,0.5,0.666666667,16,"No Breakfast","Original",6,"Original 15 21",5.5,0,16,6,9.66666666666667,0
"517","Original 15","0",4,"21",15,"F",0,0,4,0,1,0,1,0,1,1,1,5,"-","-","-",23,23,8,459,58,"Y","N",0.625,0.5,0.666666667,17,"No Breakfast","Original",7,"Original 15 21",5.5,0,17,6,7.66666666666667,0
"518","Original 15","0",4,"21",15,"F",0,0,4,0,1,0,1,0,1,1,1,4,"-","-","-",26,27,10,459,58,"Y","N",0.625,0.5,0.666666667,18,"No Breakfast","Original",8,"Original 15 21",5.5,0,18,5,6,0
"519","Original 15","0",4,"21",15,"F",0,0,4,0,1,0,1,0,1,1,1,0,"-","-","-",31,30,11,459,58,"Y","N",0.625,0.5,0.666666667,19,"No Breakfast","Original",9,"Original 15 21",5.5,0,19,4,7.66666666666667,0
"520","Original 15","0",4,"21",15,"F",0,0,4,0,1,0,1,0,1,1,1,0,"-","-","-",25,14,5,459,58,"Y","N",0.625,0.5,0.666666667,20,"No Breakfast","Original",10,"Original 15 21",5.5,0,20,0,10,0
"521","Original 15","0",4,"20",15,"F",0,1,5,1,1,1,1,1,1,1,1,10,"0","27","25",0,43,15,436,59,"Y","Y",1,1,1,1,"No Breakfast","Original",1,"Original 15 20",5.5,0,1,NA,NA,0
"522","Original 15","0",4,"20",15,"F",0,1,5,1,1,1,1,1,1,1,1,10,"1","4","22",17,35,12,436,59,"Y","Y",1,1,1,2,"No Breakfast","Original",2,"Original 15 20",5.5,0,2,10,11,1
"523","Original 15","0",4,"20",15,"F",0,1,5,1,1,1,1,1,1,1,1,10,"0","6","25",19,42,15,436,59,"Y","Y",1,1,1,3,"No Breakfast","Original",3,"Original 15 20",5.5,0,3,10,8.33333333333333,1
"524","Original 15","0",4,"20",15,"F",0,1,5,1,1,1,1,1,1,1,1,10,"0","0","25",25,44,15,436,59,"Y","Y",1,1,1,4,"No Breakfast","Original",4,"Original 15 20",5.5,0,4,10,10.6666666666667,1
"525","Original 15","0",4,"20",15,"F",0,1,5,1,1,1,1,1,1,1,1,15,"1","4","21",16,47,16,436,59,"Y","Y",1,1,1,5,"No Breakfast","Original",5,"Original 15 20",5.5,0,5,10,11.3333333333333,0
"526","Original 15","0",4,"20",15,"F",0,1,5,1,1,1,1,1,1,1,1,10,"1","0","24",23,41,14,436,59,"Y","Y",1,1,1,6,"No Breakfast","Original",6,"Original 15 20",5.5,0,6,15,10.6666666666667,1
"527","Original 15","0",4,"20",15,"F",0,1,5,1,1,1,1,1,1,1,1,12,"1","0","24",23,45,16,436,59,"Y","Y",1,1,1,7,"No Breakfast","Original",7,"Original 15 20",5.5,0,7,10,10.3333333333333,0
"528","Original 15","0",4,"20",15,"F",0,1,5,1,1,1,1,1,1,1,1,10,"0","3","26",23,47,16,436,59,"Y","Y",1,1,1,8,"No Breakfast","Original",8,"Original 15 20",5.5,0,8,12,11,0
"529","Original 15","0",4,"20",15,"F",0,1,5,1,1,1,1,1,1,1,1,11,"0","0","26",26,48,17,436,59,"Y","Y",1,1,1,9,"No Breakfast","Original",9,"Original 15 20",5.5,0,9,10,12.3333333333333,1
"530","Original 15","0",4,"20",15,"F",0,1,5,1,1,1,1,1,1,1,1,11,"0","0","26",26,48,17,436,59,"Y","Y",1,1,1,10,"No Breakfast","Original",10,"Original 15 20",5.5,0,10,11,12.3333333333333,0
"531","Original 15","0",4,"20",15,"F",0,1,5,1,1,1,1,1,1,1,1,10,"-","-","-",25,42,15,436,59,"Y","N",1,1,1,11,"No Breakfast","Original",1,"Original 15 20",5.5,0,11,NA,NA,0
"532","Original 15","0",4,"20",15,"F",0,1,5,1,1,1,1,1,1,1,1,5,"-","-","-",28,36,13,436,59,"Y","N",1,1,1,12,"No Breakfast","Original",2,"Original 15 20",5.5,0,12,10,10.6666666666667,0
"533","Original 15","0",4,"20",15,"F",0,1,5,1,1,1,1,1,1,1,1,8,"-","-","-",23,30,11,436,59,"Y","N",1,1,1,13,"No Breakfast","Original",3,"Original 15 20",5.5,0,13,5,10.3333333333333,0
"534","Original 15","0",4,"20",15,"F",0,1,5,1,1,1,1,1,1,1,1,10,"-","-","-",22,34,12,436,59,"Y","N",1,1,1,14,"No Breakfast","Original",4,"Original 15 20",5.5,0,14,8,7.33333333333333,0
"535","Original 15","0",4,"20",15,"F",0,1,5,1,1,1,1,1,1,1,1,10,"-","-","-",22,35,12,436,59,"Y","N",1,1,1,15,"No Breakfast","Original",5,"Original 15 20",5.5,0,15,10,8,0
"536","Original 15","0",4,"20",15,"F",0,1,5,1,1,1,1,1,1,1,1,5,"-","-","-",25,29,10,436,59,"Y","N",1,1,1,16,"No Breakfast","Original",6,"Original 15 20",5.5,0,16,10,8.33333333333333,0
"537","Original 15","0",4,"20",15,"F",0,1,5,1,1,1,1,1,1,1,1,6,"-","-","-",22,23,8,436,59,"Y","N",1,1,1,17,"No Breakfast","Original",7,"Original 15 20",5.5,0,17,5,8,0
"538","Original 15","0",4,"20",15,"F",0,1,5,1,1,1,1,1,1,1,1,5,"-","-","-",25,27,10,436,59,"Y","N",1,1,1,18,"No Breakfast","Original",8,"Original 15 20",5.5,0,18,6,5.66666666666667,0
"539","Original 15","0",4,"20",15,"F",0,1,5,1,1,1,1,1,1,1,1,5,"-","-","-",26,30,11,436,59,"Y","N",1,1,1,19,"No Breakfast","Original",9,"Original 15 20",5.5,0,19,5,7.33333333333333,0
"540","Original 15","0",4,"20",15,"F",0,1,5,1,1,1,1,1,1,1,1,5,"-","-","-",20,14,5,436,59,"Y","N",1,1,1,20,"No Breakfast","Original",10,"Original 15 20",5.5,0,20,5,8.33333333333333,0
"541","Original 15","0",4,"25",15,"F",0,1,5,1,1,1,1,1,1,1,1,5,"0","9","30",21,43,15,482,60,"Y","Y",1,1,1,1,"No Breakfast","Original",1,"Original 15 25",5.5,0,1,NA,NA,0
"542","Original 15","0",4,"25",15,"F",0,1,5,1,1,1,1,1,1,1,1,10,"2","4","22",16,35,12,482,60,"Y","Y",1,1,1,2,"No Breakfast","Original",2,"Original 15 25",5.5,0,2,5,12.6666666666667,1
"543","Original 15","0",4,"25",15,"F",0,1,5,1,1,1,1,1,1,1,1,10,"0","6","25",19,42,15,482,60,"Y","Y",1,1,1,3,"No Breakfast","Original",3,"Original 15 25",5.5,0,3,10,8.33333333333333,1
"544","Original 15","0",4,"25",15,"F",0,1,5,1,1,1,1,1,1,1,1,10,"1","0","25",24,44,15,482,60,"Y","Y",1,1,1,4,"No Breakfast","Original",4,"Original 15 25",5.5,0,4,10,10.6666666666667,1
"545","Original 15","0",4,"25",15,"F",0,1,5,1,1,1,1,1,1,1,1,11,"2","0","25",23,47,16,482,60,"Y","Y",1,1,1,5,"No Breakfast","Original",5,"Original 15 25",5.5,0,5,10,11.3333333333333,0
"546","Original 15","0",4,"25",15,"F",0,1,5,1,1,1,1,1,1,1,1,9,"0","3","25",22,41,14,482,60,"Y","Y",1,1,1,6,"No Breakfast","Original",6,"Original 15 25",5.5,0,6,11,12,0
"547","Original 15","0",4,"25",15,"F",0,1,5,1,1,1,1,1,1,1,1,10,"0","3","26",23,45,16,482,60,"Y","Y",1,1,1,7,"No Breakfast","Original",7,"Original 15 25",5.5,0,7,9,10.6666666666667,1
"548","Original 15","0",4,"25",15,"F",0,1,5,1,1,1,1,1,1,1,1,11,"2","0","25",23,47,16,482,60,"Y","Y",1,1,1,8,"No Breakfast","Original",8,"Original 15 25",5.5,0,8,10,11.6666666666667,1
