Condition,Session,Individual,Group,Gender,BreakfastToday,BreakfastUsually,HowHungry,Q1,Q2,Q3,Q4P,Q5P,Q1NP,Q2NP,Q3NP,Contribution,Punishment Sent,Punishment Received,Initial Payoff,Final Payoff,Group Contribution,Group Share,Total Payoff,Participant Number,Punishment First,Punishment Round,Questions Correct,Punishment Questions Correct,Non Punishment Questions Correct,Trial Number,Condition Name,TimeContribution,TimePunishment
0,2,12,5,F,0,1,7,1,1,1,1,1,1,1,1,1,2,12,24,10,13,5,422,17,Y,Y,1,1,1,1,No Breakfast,26,23
0,2,12,5,F,0,1,7,1,1,1,1,1,1,1,1,5,2,0,21,19,17,6,422,17,Y,Y,1,1,1,2,No Breakfast,6,13
0,2,12,5,F,0,1,7,1,1,1,1,1,1,1,1,5,2,2,23,19,24,8,422,17,Y,Y,1,1,1,3,No Breakfast,25,26
0,2,12,5,F,0,1,7,1,1,1,1,1,1,1,1,10,4,0,21,17,31,11,422,17,Y,Y,1,1,1,4,No Breakfast,4,24
0,2,12,5,F,0,1,7,1,1,1,1,1,1,1,1,10,1,0,23,22,38,13,422,17,Y,Y,1,1,1,5,No Breakfast,6,13
0,2,12,5,F,0,1,7,1,1,1,1,1,1,1,1,12,2,0,23,21,42,15,422,17,Y,Y,1,1,1,6,No Breakfast,20,26
0,2,12,5,F,0,1,7,1,1,1,1,1,1,1,1,11,1,3,26,22,48,17,422,17,Y,Y,1,1,1,7,No Breakfast,5,17
0,2,12,5,F,0,1,7,1,1,1,1,1,1,1,1,13,1,6,27,20,56,20,422,17,Y,Y,1,1,1,8,No Breakfast,8,17
0,2,12,5,F,0,1,7,1,1,1,1,1,1,1,1,15,0,6,30,24,70,25,422,17,Y,Y,1,1,1,9,No Breakfast,5,38
0,2,12,5,F,0,1,7,1,1,1,1,1,1,1,1,20,1,0,27,26,78,27,422,17,Y,Y,1,1,1,10,No Breakfast,4,13
0,2,12,5,F,0,1,7,1,1,1,1,1,1,1,1,0,-,-,-,26,17,6,422,17,Y,N,1,1,1,11,No Breakfast,13,NA
0,2,12,5,F,0,1,7,1,1,1,1,1,1,1,1,0,-,-,-,23,8,3,422,17,Y,N,1,1,1,12,No Breakfast,4,NA
0,2,12,5,F,0,1,7,1,1,1,1,1,1,1,1,1,-,-,-,21,5,2,422,17,Y,N,1,1,1,13,No Breakfast,5,NA
0,2,12,5,F,0,1,7,1,1,1,1,1,1,1,1,0,-,-,-,22,5,2,422,17,Y,N,1,1,1,14,No Breakfast,5,NA
0,2,12,5,F,0,1,7,1,1,1,1,1,1,1,1,0,-,-,-,23,7,3,422,17,Y,N,1,1,1,15,No Breakfast,3,NA
0,2,12,5,F,0,1,7,1,1,1,1,1,1,1,1,3,-,-,-,21,12,4,422,17,Y,N,1,1,1,16,No Breakfast,5,NA
0,2,12,5,F,0,1,7,1,1,1,1,1,1,1,1,0,-,-,-,24,10,4,422,17,Y,N,1,1,1,17,No Breakfast,4,NA
0,2,12,5,F,0,1,7,1,1,1,1,1,1,1,1,0,-,-,-,21,2,1,422,17,Y,N,1,1,1,18,No Breakfast,3,NA
0,2,12,5,F,0,1,7,1,1,1,1,1,1,1,1,1,-,-,-,21,4,2,422,17,Y,N,1,1,1,19,No Breakfast,5,NA
0,2,12,5,F,0,1,7,1,1,1,1,1,1,1,1,0,-,-,-,20,0,0,422,17,Y,N,1,1,1,20,No Breakfast,4,NA
0,2,29,5,F,0,1,3,0,1,0,0,0,0,1,0,5,3,4,20,13,13,5,411,18,Y,Y,0.25,0,0.333333333,1,No Breakfast,31,26
0,2,29,5,F,0,1,3,0,1,0,0,0,0,1,0,2,0,10,24,14,17,6,411,18,Y,Y,0.25,0,0.333333333,2,No Breakfast,17,9
0,2,29,5,F,0,1,3,0,1,0,0,0,0,1,0,5,0,2,23,21,24,8,411,18,Y,Y,0.25,0,0.333333333,3,No Breakfast,6,9
0,2,29,5,F,0,1,3,0,1,0,0,0,0,1,0,10,0,0,21,21,31,11,411,18,Y,Y,0.25,0,0.333333333,4,No Breakfast,11,10
0,2,29,5,F,0,1,3,0,1,0,0,0,0,1,0,8,0,12,25,13,38,13,411,18,Y,Y,0.25,0,0.333333333,5,No Breakfast,5,10
0,2,29,5,F,0,1,3,0,1,0,0,0,0,1,0,10,0,3,25,22,42,15,411,18,Y,Y,0.25,0,0.333333333,6,No Breakfast,12,6
0,2,29,5,F,0,1,3,0,1,0,0,0,0,1,0,11,0,6,26,20,48,17,411,18,Y,Y,0.25,0,0.333333333,7,No Breakfast,10,7
0,2,29,5,F,0,1,3,0,1,0,0,0,0,1,0,13,0,9,27,18,56,20,411,18,Y,Y,0.25,0,0.333333333,8,No Breakfast,5,7
0,2,29,5,F,0,1,3,0,1,0,0,0,0,1,0,15,0,6,30,24,70,25,411,18,Y,Y,0.25,0,0.333333333,9,No Breakfast,9,6
0,2,29,5,F,0,1,3,0,1,0,0,0,0,1,0,20,0,0,27,27,78,27,411,18,Y,Y,0.25,0,0.333333333,10,No Breakfast,7,8
0,2,29,5,F,0,1,3,0,1,0,0,0,0,1,0,5,-,-,-,21,17,6,411,18,Y,N,0.25,0,0.333333333,11,No Breakfast,32,NA
0,2,29,5,F,0,1,3,0,1,0,0,0,0,1,0,3,-,-,-,20,8,3,411,18,Y,N,0.25,0,0.333333333,12,No Breakfast,31,NA
0,2,29,5,F,0,1,3,0,1,0,0,0,0,1,0,0,-,-,-,22,5,2,411,18,Y,N,0.25,0,0.333333333,13,No Breakfast,8,NA
0,2,29,5,F,0,1,3,0,1,0,0,0,0,1,0,0,-,-,-,22,5,2,411,18,Y,N,0.25,0,0.333333333,14,No Breakfast,3,NA
0,2,29,5,F,0,1,3,0,1,0,0,0,0,1,0,1,-,-,-,22,7,3,411,18,Y,N,0.25,0,0.333333333,15,No Breakfast,4,NA
0,2,29,5,F,0,1,3,0,1,0,0,0,0,1,0,0,-,-,-,24,12,4,411,18,Y,N,0.25,0,0.333333333,16,No Breakfast,5,NA
0,2,29,5,F,0,1,3,0,1,0,0,0,0,1,0,0,-,-,-,24,10,4,411,18,Y,N,0.25,0,0.333333333,17,No Breakfast,4,NA
0,2,29,5,F,0,1,3,0,1,0,0,0,0,1,0,0,-,-,-,21,2,1,411,18,Y,N,0.25,0,0.333333333,18,No Breakfast,1,NA
0,2,29,5,F,0,1,3,0,1,0,0,0,0,1,0,0,-,-,-,22,4,2,411,18,Y,N,0.25,0,0.333333333,19,No Breakfast,2,NA
0,2,29,5,F,0,1,3,0,1,0,0,0,0,1,0,0,-,-,-,20,0,0,411,18,Y,N,0.25,0,0.333333333,20,No Breakfast,2,NA
0,2,30,5,F,0,1,5,1,1,1,1,1,1,1,1,2,0,6,23,17,13,5,411,19,Y,Y,1,1,1,1,No Breakfast,31,93
0,2,30,5,F,0,1,5,1,1,1,1,1,1,1,1,5,1,0,21,20,17,6,411,19,Y,Y,1,1,1,2,No Breakfast,24,58
0,2,30,5,F,0,1,5,1,1,1,1,1,1,1,1,10,0,0,18,18,24,8,411,19,Y,Y,1,1,1,3,No Breakfast,7,88
0,2,30,5,F,0,1,5,1,1,1,1,1,1,1,1,5,0,12,26,14,31,11,411,19,Y,Y,1,1,1,4,No Breakfast,13,12
0,2,30,5,F,0,1,5,1,1,1,1,1,1,1,1,10,1,0,23,22,38,13,411,19,Y,Y,1,1,1,5,No Breakfast,10,14
0,2,30,5,F,0,1,5,1,1,1,1,1,1,1,1,10,0,3,25,22,42,15,411,19,Y,Y,1,1,1,6,No Breakfast,7,8
0,2,30,5,F,0,1,5,1,1,1,1,1,1,1,1,12,2,0,25,23,48,17,411,19,Y,Y,1,1,1,7,No Breakfast,5,8
0,2,30,5,F,0,1,5,1,1,1,1,1,1,1,1,15,2,0,25,23,56,20,411,19,Y,Y,1,1,1,8,No Breakfast,6,9
0,2,30,5,F,0,1,5,1,1,1,1,1,1,1,1,20,2,0,25,23,70,25,411,19,Y,Y,1,1,1,9,No Breakfast,6,9
0,2,30,5,F,0,1,5,1,1,1,1,1,1,1,1,20,0,0,27,27,78,27,411,19,Y,Y,1,1,1,10,No Breakfast,4,13
0,2,30,5,F,0,1,5,1,1,1,1,1,1,1,1,2,-,-,-,24,17,6,411,19,Y,N,1,1,1,11,No Breakfast,16,NA
0,2,30,5,F,0,1,5,1,1,1,1,1,1,1,1,0,-,-,-,23,8,3,411,19,Y,N,1,1,1,12,No Breakfast,10,NA
0,2,30,5,F,0,1,5,1,1,1,1,1,1,1,1,2,-,-,-,20,5,2,411,19,Y,N,1,1,1,13,No Breakfast,6,NA
0,2,30,5,F,0,1,5,1,1,1,1,1,1,1,1,5,-,-,-,17,5,2,411,19,Y,N,1,1,1,14,No Breakfast,4,NA
0,2,30,5,F,0,1,5,1,1,1,1,1,1,1,1,5,-,-,-,18,7,3,411,19,Y,N,1,1,1,15,No Breakfast,4,NA
0,2,30,5,F,0,1,5,1,1,1,1,1,1,1,1,5,-,-,-,19,12,4,411,19,Y,N,1,1,1,16,No Breakfast,5,NA
0,2,30,5,F,0,1,5,1,1,1,1,1,1,1,1,2,-,-,-,22,10,4,411,19,Y,N,1,1,1,17,No Breakfast,4,NA
0,2,30,5,F,0,1,5,1,1,1,1,1,1,1,1,2,-,-,-,19,2,1,411,19,Y,N,1,1,1,18,No Breakfast,4,NA
0,2,30,5,F,0,1,5,1,1,1,1,1,1,1,1,2,-,-,-,20,4,2,411,19,Y,N,1,1,1,19,No Breakfast,4,NA
0,2,30,5,F,0,1,5,1,1,1,1,1,1,1,1,0,-,-,-,20,0,0,411,19,Y,N,1,1,1,20,No Breakfast,4,NA
0,2,28,5,F,0,1,5,0,1,1,1,1,1,1,1,5,7,2,20,11,13,5,406,20,Y,Y,0.875,1,0.833333333,1,No Breakfast,44,79
0,2,28,5,F,0,1,5,0,1,1,1,1,1,1,1,5,2,0,21,19,17,6,406,20,Y,Y,0.875,1,0.833333333,2,No Breakfast,30,11
0,2,28,5,F,0,1,5,0,1,1,1,1,1,1,1,4,2,4,24,18,24,8,406,20,Y,Y,0.875,1,0.833333333,3,No Breakfast,10,55
0,2,28,5,F,0,1,5,0,1,1,1,1,1,1,1,6,1,3,25,21,31,11,406,20,Y,Y,0.875,1,0.833333333,4,No Breakfast,13,50
0,2,28,5,F,0,1,5,0,1,1,1,1,1,1,1,10,2,0,23,21,38,13,406,20,Y,Y,0.875,1,0.833333333,5,No Breakfast,4,8
0,2,28,5,F,0,1,5,0,1,1,1,1,1,1,1,10,0,0,25,25,42,15,406,20,Y,Y,0.875,1,0.833333333,6,No Breakfast,5,5
0,2,28,5,F,0,1,5,0,1,1,1,1,1,1,1,14,0,0,23,23,48,17,406,20,Y,Y,0.875,1,0.833333333,7,No Breakfast,10,8
0,2,28,5,F,0,1,5,0,1,1,1,1,1,1,1,15,2,0,25,23,56,20,406,20,Y,Y,0.875,1,0.833333333,8,No Breakfast,7,24
0,2,28,5,F,0,1,5,0,1,1,1,1,1,1,1,20,2,0,25,23,70,25,406,20,Y,Y,0.875,1,0.833333333,9,No Breakfast,4,7
0,2,28,5,F,0,1,5,0,1,1,1,1,1,1,1,18,0,3,29,26,78,27,406,20,Y,Y,0.875,1,0.833333333,10,No Breakfast,8,12
0,2,28,5,F,0,1,5,0,1,1,1,1,1,1,1,10,-,-,-,16,17,6,406,20,Y,N,0.875,1,0.833333333,11,No Breakfast,5,NA
0,2,28,5,F,0,1,5,0,1,1,1,1,1,1,1,5,-,-,-,18,8,3,406,20,Y,N,0.875,1,0.833333333,12,No Breakfast,12,NA
0,2,28,5,F,0,1,5,0,1,1,1,1,1,1,1,2,-,-,-,20,5,2,406,20,Y,N,0.875,1,0.833333333,13,No Breakfast,7,NA
0,2,28,5,F,0,1,5,0,1,1,1,1,1,1,1,0,-,-,-,22,5,2,406,20,Y,N,0.875,1,0.833333333,14,No Breakfast,13,NA
0,2,28,5,F,0,1,5,0,1,1,1,1,1,1,1,1,-,-,-,22,7,3,406,20,Y,N,0.875,1,0.833333333,15,No Breakfast,4,NA
0,2,28,5,F,0,1,5,0,1,1,1,1,1,1,1,4,-,-,-,20,12,4,406,20,Y,N,0.875,1,0.833333333,16,No Breakfast,18,NA
0,2,28,5,F,0,1,5,0,1,1,1,1,1,1,1,8,-,-,-,16,10,4,406,20,Y,N,0.875,1,0.833333333,17,No Breakfast,4,NA
0,2,28,5,F,0,1,5,0,1,1,1,1,1,1,1,0,-,-,-,21,2,1,406,20,Y,N,0.875,1,0.833333333,18,No Breakfast,4,NA
0,2,28,5,F,0,1,5,0,1,1,1,1,1,1,1,1,-,-,-,21,4,2,406,20,Y,N,0.875,1,0.833333333,19,No Breakfast,4,NA
0,2,28,5,F,0,1,5,0,1,1,1,1,1,1,1,0,-,-,-,20,0,0,406,20,Y,N,0.875,1,0.833333333,20,No Breakfast,10,NA
0,2,23,6,M,0,1,6,1,1,1,1,1,1,1,1,2,8,9,27,10,27,9,380,21,Y,Y,1,1,1,1,No Breakfast,28,66
0,2,23,6,M,0,1,6,1,1,1,1,1,1,1,1,5,0,2,23,21,22,8,380,21,Y,Y,1,1,1,2,No Breakfast,10,17
0,2,23,6,M,0,1,6,1,1,1,1,1,1,1,1,0,0,18,26,8,18,6,380,21,Y,Y,1,1,1,3,No Breakfast,3,9
0,2,23,6,M,0,1,6,1,1,1,1,1,1,1,1,3,3,0,23,20,17,6,380,21,Y,Y,1,1,1,4,No Breakfast,13,15
0,2,23,6,M,0,1,6,1,1,1,1,1,1,1,1,4,2,0,20,18,10,4,380,21,Y,Y,1,1,1,5,No Breakfast,5,20
0,2,23,6,M,0,1,6,1,1,1,1,1,1,1,1,4,0,2,23,21,20,7,380,21,Y,Y,1,1,1,6,No Breakfast,6,6
0,2,23,6,M,0,1,6,1,1,1,1,1,1,1,1,4,1,2,23,20,19,7,380,21,Y,Y,1,1,1,7,No Breakfast,3,7
0,2,23,6,M,0,1,6,1,1,1,1,1,1,1,1,4,1,4,23,18,20,7,380,21,Y,Y,1,1,1,8,No Breakfast,10,6
0,2,23,6,M,0,1,6,1,1,1,1,1,1,1,1,5,7,0,21,14,16,6,380,21,Y,Y,1,1,1,9,No Breakfast,5,13
0,2,23,6,M,0,1,6,1,1,1,1,1,1,1,1,4,3,2,24,19,22,8,380,21,Y,Y,1,1,1,10,No Breakfast,4,9
0,2,23,6,M,0,1,6,1,1,1,1,1,1,1,1,10,-,-,-,21,30,11,380,21,Y,N,1,1,1,11,No Breakfast,36,NA
0,2,23,6,M,0,1,6,1,1,1,1,1,1,1,1,10,-,-,-,19,25,9,380,21,Y,N,1,1,1,12,No Breakfast,4,NA
0,2,23,6,M,0,1,6,1,1,1,1,1,1,1,1,5,-,-,-,21,17,6,380,21,Y,N,1,1,1,13,No Breakfast,3,NA
0,2,23,6,M,0,1,6,1,1,1,1,1,1,1,1,0,-,-,-,23,8,3,380,21,Y,N,1,1,1,14,No Breakfast,4,NA
0,2,23,6,M,0,1,6,1,1,1,1,1,1,1,1,8,-,-,-,18,18,6,380,21,Y,N,1,1,1,15,No Breakfast,5,NA
0,2,23,6,M,0,1,6,1,1,1,1,1,1,1,1,3,-,-,-,22,14,5,380,21,Y,N,1,1,1,16,No Breakfast,5,NA
0,2,23,6,M,0,1,6,1,1,1,1,1,1,1,1,1,-,-,-,22,9,3,380,21,Y,N,1,1,1,17,No Breakfast,4,NA
0,2,23,6,M,0,1,6,1,1,1,1,1,1,1,1,2,-,-,-,22,11,4,380,21,Y,N,1,1,1,18,No Breakfast,3,NA
0,2,23,6,M,0,1,6,1,1,1,1,1,1,1,1,4,-,-,-,20,10,4,380,21,Y,N,1,1,1,19,No Breakfast,4,NA
0,2,23,6,M,0,1,6,1,1,1,1,1,1,1,1,0,-,-,-,23,7,3,380,21,Y,N,1,1,1,20,No Breakfast,3,NA
0,2,13,6,M,0,1,8,1,1,1,1,1,1,1,1,5,2,6,24,16,27,9,416,22,Y,Y,1,1,1,1,No Breakfast,9,33
0,2,13,6,M,0,1,8,1,1,1,1,1,1,1,1,10,0,6,18,12,22,8,416,22,Y,Y,1,1,1,2,No Breakfast,10,7
0,2,13,6,M,0,1,8,1,1,1,1,1,1,1,1,2,6,2,24,16,18,6,416,22,Y,Y,1,1,1,3,No Breakfast,5,19
0,2,13,6,M,0,1,8,1,1,1,1,1,1,1,1,4,2,2,22,18,17,6,416,22,Y,Y,1,1,1,4,No Breakfast,8,22
0,2,13,6,M,0,1,8,1,1,1,1,1,1,1,1,2,1,0,22,21,10,4,416,22,Y,Y,1,1,1,5,No Breakfast,6,9
0,2,13,6,M,0,1,8,1,1,1,1,1,1,1,1,5,2,0,22,20,20,7,416,22,Y,Y,1,1,1,6,No Breakfast,4,9
0,2,13,6,M,0,1,8,1,1,1,1,1,1,1,1,4,2,0,23,21,19,7,416,22,Y,Y,1,1,1,7,No Breakfast,4,9
0,2,13,6,M,0,1,8,1,1,1,1,1,1,1,1,1,1,6,26,19,20,7,416,22,Y,Y,1,1,1,8,No Breakfast,6,8
0,2,13,6,M,0,1,8,1,1,1,1,1,1,1,1,2,1,6,24,17,16,6,416,22,Y,Y,1,1,1,9,No Breakfast,5,30
0,2,13,6,M,0,1,8,1,1,1,1,1,1,1,1,5,1,2,23,20,22,8,416,22,Y,Y,1,1,1,10,No Breakfast,4,7
0,2,13,6,M,0,1,8,1,1,1,1,1,1,1,1,5,-,-,-,26,30,11,416,22,Y,N,1,1,1,11,No Breakfast,10,NA
0,2,13,6,M,0,1,8,1,1,1,1,1,1,1,1,5,-,-,-,24,25,9,416,22,Y,N,1,1,1,12,No Breakfast,7,NA
0,2,13,6,M,0,1,8,1,1,1,1,1,1,1,1,0,-,-,-,26,17,6,416,22,Y,N,1,1,1,13,No Breakfast,3,NA
0,2,13,6,M,0,1,8,1,1,1,1,1,1,1,1,0,-,-,-,23,8,3,416,22,Y,N,1,1,1,14,No Breakfast,2,NA
0,2,13,6,M,0,1,8,1,1,1,1,1,1,1,1,2,-,-,-,24,18,6,416,22,Y,N,1,1,1,15,No Breakfast,4,NA
0,2,13,6,M,0,1,8,1,1,1,1,1,1,1,1,2,-,-,-,23,14,5,416,22,Y,N,1,1,1,16,No Breakfast,2,NA
0,2,13,6,M,0,1,8,1,1,1,1,1,1,1,1,4,-,-,-,19,9,3,416,22,Y,N,1,1,1,17,No Breakfast,2,NA
0,2,13,6,M,0,1,8,1,1,1,1,1,1,1,1,0,-,-,-,24,11,4,416,22,Y,N,1,1,1,18,No Breakfast,3,NA
0,2,13,6,M,0,1,8,1,1,1,1,1,1,1,1,0,-,-,-,24,10,4,416,22,Y,N,1,1,1,19,No Breakfast,2,NA
0,2,13,6,M,0,1,8,1,1,1,1,1,1,1,1,0,-,-,-,23,7,3,416,22,Y,N,1,1,1,20,No Breakfast,2,NA
0,2,25,6,F,0,1,5,0,0,0,1,0,1,0,0,15,3,4,14,7,27,9,361,23,Y,Y,0.25,0.5,0.166666667,1,No Breakfast,45,32
0,2,25,6,F,0,1,5,0,0,0,1,0,1,0,0,2,4,0,26,22,22,8,361,23,Y,Y,0.25,0.5,0.166666667,2,No Breakfast,14,14
0,2,25,6,F,0,1,5,0,0,0,1,0,1,0,0,6,0,2,20,18,18,6,361,23,Y,Y,0.25,0.5,0.166666667,3,No Breakfast,10,8
0,2,25,6,F,0,1,5,0,0,0,1,0,1,0,0,10,0,0,16,16,17,6,361,23,Y,Y,0.25,0.5,0.166666667,4,No Breakfast,28,13
0,2,25,6,F,0,1,5,0,0,0,1,0,1,0,0,0,0,8,24,16,10,4,361,23,Y,Y,0.25,0.5,0.166666667,5,No Breakfast,6,8
0,2,25,6,F,0,1,5,0,0,0,1,0,1,0,0,8,0,0,19,19,20,7,361,23,Y,Y,0.25,0.5,0.166666667,6,No Breakfast,4,5
0,2,25,6,F,0,1,5,0,0,0,1,0,1,0,0,9,0,0,18,18,19,7,361,23,Y,Y,0.25,0.5,0.166666667,7,No Breakfast,2,15
0,2,25,6,F,0,1,5,0,0,0,1,0,1,0,0,10,1,0,17,16,20,7,361,23,Y,Y,0.25,0.5,0.166666667,8,No Breakfast,4,10
0,2,25,6,F,0,1,5,0,0,0,1,0,1,0,0,6,0,0,20,20,16,6,361,23,Y,Y,0.25,0.5,0.166666667,9,No Breakfast,3,7
0,2,25,6,F,0,1,5,0,0,0,1,0,1,0,0,8,0,2,20,18,22,8,361,23,Y,Y,0.25,0.5,0.166666667,10,No Breakfast,6,13
0,2,25,6,F,0,1,5,0,0,0,1,0,1,0,0,10,-,-,-,21,30,11,361,23,Y,N,0.25,0.5,0.166666667,11,No Breakfast,5,NA
0,2,25,6,F,0,1,5,0,0,0,1,0,1,0,0,0,-,-,-,29,25,9,361,23,Y,N,0.25,0.5,0.166666667,12,No Breakfast,3,NA
0,2,25,6,F,0,1,5,0,0,0,1,0,1,0,0,11,-,-,-,15,17,6,361,23,Y,N,0.25,0.5,0.166666667,13,No Breakfast,13,NA
0,2,25,6,F,0,1,5,0,0,0,1,0,1,0,0,6,-,-,-,17,8,3,361,23,Y,N,0.25,0.5,0.166666667,14,No Breakfast,6,NA
0,2,25,6,F,0,1,5,0,0,0,1,0,1,0,0,8,-,-,-,18,18,6,361,23,Y,N,0.25,0.5,0.166666667,15,No Breakfast,15,NA
0,2,25,6,F,0,1,5,0,0,0,1,0,1,0,0,8,-,-,-,17,14,5,361,23,Y,N,0.25,0.5,0.166666667,16,No Breakfast,2,NA
0,2,25,6,F,0,1,5,0,0,0,1,0,1,0,0,2,-,-,-,21,9,3,361,23,Y,N,0.25,0.5,0.166666667,17,No Breakfast,3,NA
0,2,25,6,F,0,1,5,0,0,0,1,0,1,0,0,6,-,-,-,18,11,4,361,23,Y,N,0.25,0.5,0.166666667,18,No Breakfast,3,NA
0,2,25,6,F,0,1,5,0,0,0,1,0,1,0,0,6,-,-,-,18,10,4,361,23,Y,N,0.25,0.5,0.166666667,19,No Breakfast,3,NA
0,2,25,6,F,0,1,5,0,0,0,1,0,1,0,0,6,-,-,-,17,7,3,361,23,Y,N,0.25,0.5,0.166666667,20,No Breakfast,5,NA
0,2,26,6,M,0,1,6,1,1,1,1,0,1,1,1,5,0,6,24,18,27,9,404,24,Y,Y,0.875,0.5,1,1,No Breakfast,18,27
0,2,26,6,M,0,1,6,1,1,1,1,0,1,1,1,5,1,2,23,20,22,8,404,24,Y,Y,0.875,0.5,1,2,No Breakfast,14,28
0,2,26,6,M,0,1,6,1,1,1,1,0,1,1,1,10,4,4,16,8,18,6,404,24,Y,Y,0.875,0.5,1,3,No Breakfast,7,19
0,2,26,6,M,0,1,6,1,1,1,1,0,1,1,1,0,0,12,26,14,17,6,404,24,Y,Y,0.875,0.5,1,4,No Breakfast,4,9
0,2,26,6,M,0,1,6,1,1,1,1,0,1,1,1,4,1,0,20,19,10,4,404,24,Y,Y,0.875,0.5,1,5,No Breakfast,4,7
0,2,26,6,M,0,1,6,1,1,1,1,0,1,1,1,3,0,2,24,22,20,7,404,24,Y,Y,0.875,0.5,1,6,No Breakfast,5,8
0,2,26,6,M,0,1,6,1,1,1,1,0,1,1,1,2,0,6,25,19,19,7,404,24,Y,Y,0.875,0.5,1,7,No Breakfast,5,6
0,2,26,6,M,0,1,6,1,1,1,1,0,1,1,1,5,1,0,22,21,20,7,404,24,Y,Y,0.875,0.5,1,8,No Breakfast,7,10
0,2,26,6,M,0,1,6,1,1,1,1,0,1,1,1,3,0,10,23,13,16,6,404,24,Y,Y,0.875,0.5,1,9,No Breakfast,6,6
0,2,26,6,M,0,1,6,1,1,1,1,0,1,1,1,5,0,2,23,21,22,8,404,24,Y,Y,0.875,0.5,1,10,No Breakfast,5,5
0,2,26,6,M,0,1,6,1,1,1,1,0,1,1,1,5,-,-,-,26,30,11,404,24,Y,N,0.875,0.5,1,11,No Breakfast,23,NA
0,2,26,6,M,0,1,6,1,1,1,1,0,1,1,1,10,-,-,-,19,25,9,404,24,Y,N,0.875,0.5,1,12,No Breakfast,11,NA
0,2,26,6,M,0,1,6,1,1,1,1,0,1,1,1,1,-,-,-,25,17,6,404,24,Y,N,0.875,0.5,1,13,No Breakfast,5,NA
0,2,26,6,M,0,1,6,1,1,1,1,0,1,1,1,2,-,-,-,21,8,3,404,24,Y,N,0.875,0.5,1,14,No Breakfast,4,NA
0,2,26,6,M,0,1,6,1,1,1,1,0,1,1,1,0,-,-,-,26,18,6,404,24,Y,N,0.875,0.5,1,15,No Breakfast,4,NA
0,2,26,6,M,0,1,6,1,1,1,1,0,1,1,1,1,-,-,-,24,14,5,404,24,Y,N,0.875,0.5,1,16,No Breakfast,3,NA
0,2,26,6,M,0,1,6,1,1,1,1,0,1,1,1,2,-,-,-,21,9,3,404,24,Y,N,0.875,0.5,1,17,No Breakfast,3,NA
0,2,26,6,M,0,1,6,1,1,1,1,0,1,1,1,3,-,-,-,21,11,4,404,24,Y,N,0.875,0.5,1,18,No Breakfast,6,NA
0,2,26,6,M,0,1,6,1,1,1,1,0,1,1,1,0,-,-,-,24,10,4,404,24,Y,N,0.875,0.5,1,19,No Breakfast,3,NA
0,2,26,6,M,0,1,6,1,1,1,1,0,1,1,1,1,-,-,-,22,7,3,404,24,Y,N,0.875,0.5,1,20,No Breakfast,3,NA
0,2,27,7,F,0,1,5,1,1,1,1,1,1,1,1,5,4,6,30,20,43,15,414,25,Y,Y,1,1,1,1,No Breakfast,13,36
0,2,27,7,F,0,1,5,1,1,1,1,1,1,1,1,1,9,9,29,11,28,10,414,25,Y,Y,1,1,1,2,No Breakfast,7,39
0,2,27,7,F,0,1,5,1,1,1,1,1,1,1,1,3,3,6,29,20,33,12,414,25,Y,Y,1,1,1,3,No Breakfast,11,28
0,2,27,7,F,0,1,5,1,1,1,1,1,1,1,1,0,3,12,25,10,15,5,414,25,Y,Y,1,1,1,4,No Breakfast,8,11
0,2,27,7,F,0,1,5,1,1,1,1,1,1,1,1,10,4,18,26,4,45,16,414,25,Y,Y,1,1,1,5,No Breakfast,12,9
0,2,27,7,F,0,1,5,1,1,1,1,1,1,1,1,5,6,21,29,2,41,14,414,25,Y,Y,1,1,1,6,No Breakfast,6,12
0,2,27,7,F,0,1,5,1,1,1,1,1,1,1,1,0,6,3,31,22,30,11,414,25,Y,Y,1,1,1,7,No Breakfast,15,16
0,2,27,7,F,0,1,5,1,1,1,1,1,1,1,1,0,4,4,38,30,50,8,414,25,Y,Y,1,1,1,8,No Breakfast,4,16
0,2,27,7,F,0,1,5,1,1,1,1,1,1,1,1,2,6,3,29,20,32,11,414,25,Y,Y,1,1,1,9,No Breakfast,10,11
0,2,27,7,F,0,1,5,1,1,1,1,1,1,1,1,0,5,3,34,26,40,14,414,25,Y,Y,1,1,1,10,No Breakfast,4,12
0,2,27,7,F,0,1,5,1,1,1,1,1,1,1,1,2,-,-,-,33,42,15,414,25,Y,N,1,1,1,11,No Breakfast,19,NA
0,2,27,7,F,0,1,5,1,1,1,1,1,1,1,1,1,-,-,-,30,31,11,414,25,Y,N,1,1,1,12,No Breakfast,5,NA
0,2,27,7,F,0,1,5,1,1,1,1,1,1,1,1,2,-,-,-,26,22,8,414,25,Y,N,1,1,1,13,No Breakfast,13,NA
0,2,27,7,F,0,1,5,1,1,1,1,1,1,1,1,5,-,-,-,20,15,5,414,25,Y,N,1,1,1,14,No Breakfast,4,NA
0,2,27,7,F,0,1,5,1,1,1,1,1,1,1,1,0,-,-,-,28,22,8,414,25,Y,N,1,1,1,15,No Breakfast,3,NA
0,2,27,7,F,0,1,5,1,1,1,1,1,1,1,1,0,-,-,-,28,22,8,414,25,Y,N,1,1,1,16,No Breakfast,5,NA
0,2,27,7,F,0,1,5,1,1,1,1,1,1,1,1,5,-,-,-,22,20,7,414,25,Y,N,1,1,1,17,No Breakfast,6,NA
0,2,27,7,F,0,1,5,1,1,1,1,1,1,1,1,10,-,-,-,17,20,7,414,25,Y,N,1,1,1,18,No Breakfast,6,NA
0,2,27,7,F,0,1,5,1,1,1,1,1,1,1,1,0,-,-,-,23,9,3,414,25,Y,N,1,1,1,19,No Breakfast,3,NA
0,2,27,7,F,0,1,5,1,1,1,1,1,1,1,1,0,-,-,-,22,5,2,414,25,Y,N,1,1,1,20,No Breakfast,5,NA
0,2,35,7,M,0,1,7,0,1,0,1,1,1,1,0,20,0,26,15,0,43,15,312,26,Y,Y,0.625,1,0.5,1,No Breakfast,32,48
0,2,35,7,M,0,1,7,0,1,0,1,1,1,1,0,12,7,18,18,0,28,10,312,26,Y,Y,0.625,1,0.5,2,No Breakfast,22,32
0,2,35,7,M,0,1,7,0,1,0,1,1,1,1,0,0,0,9,32,23,33,12,312,26,Y,Y,0.625,1,0.5,3,No Breakfast,5,10
0,2,35,7,M,0,1,7,0,1,0,1,1,1,1,0,0,0,15,25,10,15,5,312,26,Y,Y,0.625,1,0.5,4,No Breakfast,5,29
0,2,35,7,M,0,1,7,0,1,0,1,1,1,1,0,7,0,18,29,11,45,16,312,26,Y,Y,0.625,1,0.5,5,No Breakfast,9,15
0,2,35,7,M,0,1,7,0,1,0,1,1,1,1,0,6,0,30,28,0,41,14,312,26,Y,Y,0.625,1,0.5,6,No Breakfast,4,6
0,2,35,7,M,0,1,7,0,1,0,1,1,1,1,0,0,0,12,31,19,30,11,312,26,Y,Y,0.625,1,0.5,7,No Breakfast,14,7
0,2,35,7,M,0,1,7,0,1,0,1,1,1,1,0,20,0,14,18,4,50,18,312,26,Y,Y,0.625,1,0.5,8,No Breakfast,4,5
0,2,35,7,M,0,1,7,0,1,0,1,1,1,1,0,0,0,12,31,19,32,11,312,26,Y,Y,0.625,1,0.5,9,No Breakfast,3,11
0,2,35,7,M,0,1,7,0,1,0,1,1,1,1,0,0,0,12,34,22,40,14,312,26,Y,Y,0.625,1,0.5,10,No Breakfast,5,5
0,2,35,7,M,0,1,7,0,1,0,1,1,1,1,0,20,-,-,-,15,42,15,312,26,Y,N,0.625,1,0.5,11,No Breakfast,28,NA
0,2,35,7,M,0,1,7,0,1,0,1,1,1,1,0,20,-,-,-,11,31,11,312,26,Y,N,0.625,1,0.5,12,No Breakfast,6,NA
0,2,35,7,M,0,1,7,0,1,0,1,1,1,1,0,0,-,-,-,28,22,8,312,26,Y,N,0.625,1,0.5,13,No Breakfast,4,NA
0,2,35,7,M,0,1,7,0,1,0,1,1,1,1,0,0,-,-,-,25,15,5,312,26,Y,N,0.625,1,0.5,14,No Breakfast,12,NA
0,2,35,7,M,0,1,7,0,1,0,1,1,1,1,0,12,-,-,-,16,22,8,312,26,Y,N,0.625,1,0.5,15,No Breakfast,4,NA
0,2,35,7,M,0,1,7,0,1,0,1,1,1,1,0,12,-,-,-,16,22,8,312,26,Y,N,0.625,1,0.5,16,No Breakfast,4,NA
0,2,35,7,M,0,1,7,0,1,0,1,1,1,1,0,0,-,-,-,27,20,7,312,26,Y,N,0.625,1,0.5,17,No Breakfast,2,NA
0,2,35,7,M,0,1,7,0,1,0,1,1,1,1,0,2,-,-,-,25,20,7,312,26,Y,N,0.625,1,0.5,18,No Breakfast,2,NA
0,2,35,7,M,0,1,7,0,1,0,1,1,1,1,0,4,-,-,-,19,9,3,312,26,Y,N,0.625,1,0.5,19,No Breakfast,2,NA
0,2,35,7,M,0,1,7,0,1,0,1,1,1,1,0,0,-,-,-,22,5,2,312,26,Y,N,0.625,1,0.5,20,No Breakfast,3,NA
0,2,22,7,F,0,0,4,0,1,0,0,0,1,1,1,10,3,18,25,4,43,15,319,27,Y,Y,0.5,0,0.666666667,1,No Breakfast,25,56
0,2,22,7,F,0,0,4,0,1,0,0,0,1,1,1,10,3,18,20,0,28,10,319,27,Y,Y,0.5,0,0.666666667,2,No Breakfast,20,16
0,2,22,7,F,0,0,4,0,1,0,0,0,1,1,1,20,3,11,12,0,33,12,319,27,Y,Y,0.5,0,0.666666667,3,No Breakfast,12,29
0,2,22,7,F,0,0,4,0,1,0,0,0,1,1,1,0,3,12,25,10,15,5,319,27,Y,Y,0.5,0,0.666666667,4,No Breakfast,3,14
0,2,22,7,F,0,0,4,0,1,0,0,0,1,1,1,8,4,18,28,6,45,16,319,27,Y,Y,0.5,0,0.666666667,5,No Breakfast,19,8
0,2,22,7,F,0,0,4,0,1,0,0,0,1,1,1,20,6,11,14,0,41,14,319,27,Y,Y,0.5,0,0.666666667,6,No Breakfast,10,5
0,2,22,7,F,0,0,4,0,1,0,0,0,1,1,1,10,3,6,21,12,30,11,319,27,Y,Y,0.5,0,0.666666667,7,No Breakfast,4,9
0,2,22,7,F,0,0,4,0,1,0,0,0,1,1,1,10,3,21,28,4,50,18,319,27,Y,Y,0.5,0,0.666666667,8,No Breakfast,7,12
0,2,22,7,F,0,0,4,0,1,0,0,0,1,1,1,10,3,6,21,12,32,11,319,27,Y,Y,0.5,0,0.666666667,9,No Breakfast,9,13
0,2,22,7,F,0,0,4,0,1,0,0,0,1,1,1,20,2,5,14,7,40,14,319,27,Y,Y,0.5,0,0.666666667,10,No Breakfast,6,10
0,2,22,7,F,0,0,4,0,1,0,0,0,1,1,1,10,-,-,-,25,42,15,319,27,Y,N,0.5,0,0.666666667,11,No Breakfast,20,NA
0,2,22,7,F,0,0,4,0,1,0,0,0,1,1,1,0,-,-,-,31,31,11,319,27,Y,N,0.5,0,0.666666667,12,No Breakfast,11,NA
0,2,22,7,F,0,0,4,0,1,0,0,0,1,1,1,0,-,-,-,28,22,8,319,27,Y,N,0.5,0,0.666666667,13,No Breakfast,11,NA
0,2,22,7,F,0,0,4,0,1,0,0,0,1,1,1,0,-,-,-,25,15,5,319,27,Y,N,0.5,0,0.666666667,14,No Breakfast,4,NA
0,2,22,7,F,0,0,4,0,1,0,0,0,1,1,1,0,-,-,-,28,22,8,319,27,Y,N,0.5,0,0.666666667,15,No Breakfast,2,NA
0,2,22,7,F,0,0,4,0,1,0,0,0,1,1,1,0,-,-,-,28,22,8,319,27,Y,N,0.5,0,0.666666667,16,No Breakfast,2,NA
0,2,22,7,F,0,0,4,0,1,0,0,0,1,1,1,0,-,-,-,27,20,7,319,27,Y,N,0.5,0,0.666666667,17,No Breakfast,2,NA
0,2,22,7,F,0,0,4,0,1,0,0,0,1,1,1,0,-,-,-,27,20,7,319,27,Y,N,0.5,0,0.666666667,18,No Breakfast,4,NA
0,2,22,7,F,0,0,4,0,1,0,0,0,1,1,1,0,-,-,-,23,9,3,319,27,Y,N,0.5,0,0.666666667,19,No Breakfast,3,NA
0,2,22,7,F,0,0,4,0,1,0,0,0,1,1,1,0,-,-,-,22,5,2,319,27,Y,N,0.5,0,0.666666667,20,No Breakfast,4,NA
0,2,20,7,F,0,0,5,0,0,1,0,1,1,1,1,8,16,6,27,5,43,15,211,28,Y,Y,0.625,0.5,0.666666667,1,No Breakfast,78,52
0,2,20,7,F,0,0,5,0,0,1,0,1,1,1,1,5,9,21,25,0,28,10,211,28,Y,Y,0.625,0.5,0.666666667,2,No Breakfast,10,40
0,2,20,7,F,0,0,5,0,0,1,0,1,1,1,1,10,12,4,22,6,33,12,211,28,Y,Y,0.625,0.5,0.666666667,3,No Breakfast,6,15
0,2,20,7,F,0,0,5,0,0,1,0,1,1,1,1,15,9,2,10,0,15,5,211,28,Y,Y,0.625,0.5,0.666666667,4,No Breakfast,14,19
0,2,20,7,F,0,0,5,0,0,1,0,1,1,1,1,20,13,6,16,0,45,16,211,28,Y,Y,0.625,0.5,0.666666667,5,No Breakfast,10,26
0,2,20,7,F,0,0,5,0,0,1,0,1,1,1,1,10,20,8,24,0,41,14,211,28,Y,Y,0.625,0.5,0.666666667,6,No Breakfast,6,80
0,2,20,7,F,0,0,5,0,0,1,0,1,1,1,1,20,1,2,11,8,30,11,211,28,Y,Y,0.625,0.5,0.666666667,7,No Breakfast,12,12
0,2,20,7,F,0,0,5,0,0,1,0,1,1,1,1,20,10,4,18,4,50,18,211,28,Y,Y,0.625,0.5,0.666666667,8,No Breakfast,4,9
0,2,20,7,F,0,0,5,0,0,1,0,1,1,1,1,20,1,2,11,8,32,11,211,28,Y,Y,0.625,0.5,0.666666667,9,No Breakfast,6,13
0,2,20,7,F,0,0,5,0,0,1,0,1,1,1,1,20,4,1,14,9,40,14,211,28,Y,Y,0.625,0.5,0.666666667,10,No Breakfast,5,21
0,2,20,7,F,0,0,5,0,0,1,0,1,1,1,1,10,-,-,-,25,42,15,211,28,Y,N,0.625,0.5,0.666666667,11,No Breakfast,23,NA
0,2,20,7,F,0,0,5,0,0,1,0,1,1,1,1,10,-,-,-,21,31,11,211,28,Y,N,0.625,0.5,0.666666667,12,No Breakfast,21,NA
0,2,20,7,F,0,0,5,0,0,1,0,1,1,1,1,20,-,-,-,8,22,8,211,28,Y,N,0.625,0.5,0.666666667,13,No Breakfast,15,NA
0,2,20,7,F,0,0,5,0,0,1,0,1,1,1,1,10,-,-,-,15,15,5,211,28,Y,N,0.625,0.5,0.666666667,14,No Breakfast,4,NA
0,2,20,7,F,0,0,5,0,0,1,0,1,1,1,1,10,-,-,-,18,22,8,211,28,Y,N,0.625,0.5,0.666666667,15,No Breakfast,3,NA
0,2,20,7,F,0,0,5,0,0,1,0,1,1,1,1,10,-,-,-,18,22,8,211,28,Y,N,0.625,0.5,0.666666667,16,No Breakfast,6,NA
0,2,20,7,F,0,0,5,0,0,1,0,1,1,1,1,15,-,-,-,12,20,7,211,28,Y,N,0.625,0.5,0.666666667,17,No Breakfast,6,NA
0,2,20,7,F,0,0,5,0,0,1,0,1,1,1,1,8,-,-,-,19,20,7,211,28,Y,N,0.625,0.5,0.666666667,18,No Breakfast,5,NA
0,2,20,7,F,0,0,5,0,0,1,0,1,1,1,1,5,-,-,-,18,9,3,211,28,Y,N,0.625,0.5,0.666666667,19,No Breakfast,4,NA
0,2,20,7,F,0,0,5,0,0,1,0,1,1,1,1,5,-,-,-,17,5,2,211,28,Y,N,0.625,0.5,0.666666667,20,No Breakfast,5,NA
0,2,14,8,M,0,1,2,1,1,1,1,1,1,1,1,10,1,6,26,19,45,16,366,29,Y,Y,1,1,1,1,No Breakfast,28,17
0,2,14,8,M,0,1,2,1,1,1,1,1,1,1,1,15,2,20,23,1,50,18,366,29,Y,Y,1,1,1,2,No Breakfast,4,10
0,2,14,8,M,0,1,2,1,1,1,1,1,1,1,1,15,1,0,22,21,48,17,366,29,Y,Y,1,1,1,3,No Breakfast,5,14
0,2,14,8,M,0,1,2,1,1,1,1,1,1,1,1,15,0,9,27,18,63,22,366,29,Y,Y,1,1,1,4,No Breakfast,4,7
0,2,14,8,M,0,1,2,1,1,1,1,1,1,1,1,20,2,22,21,0,60,21,366,29,Y,Y,1,1,1,5,No Breakfast,5,9
0,2,14,8,M,0,1,2,1,1,1,1,1,1,1,1,20,2,2,21,17,60,21,366,29,Y,Y,1,1,1,6,No Breakfast,8,7
0,2,14,8,M,0,1,2,1,1,1,1,1,1,1,1,15,4,4,24,16,53,19,366,29,Y,Y,1,1,1,7,No Breakfast,4,12
0,2,14,8,M,0,1,2,1,1,1,1,1,1,1,1,15,0,0,27,27,63,22,366,29,Y,Y,1,1,1,8,No Breakfast,7,6
0,2,14,8,M,0,1,2,1,1,1,1,1,1,1,1,15,4,0,21,17,46,16,366,29,Y,Y,1,1,1,9,No Breakfast,9,12
0,2,14,8,M,0,1,2,1,1,1,1,1,1,1,1,15,0,0,30,30,70,25,366,29,Y,Y,1,1,1,10,No Breakfast,5,4
0,2,14,8,M,0,1,2,1,1,1,1,1,1,1,1,15,-,-,-,23,50,18,366,29,Y,N,1,1,1,11,No Breakfast,14,NA
0,2,14,8,M,0,1,2,1,1,1,1,1,1,1,1,15,-,-,-,21,45,16,366,29,Y,N,1,1,1,12,No Breakfast,8,NA
0,2,14,8,M,0,1,2,1,1,1,1,1,1,1,1,14,-,-,-,20,41,14,366,29,Y,N,1,1,1,13,No Breakfast,6,NA
0,2,14,8,M,0,1,2,1,1,1,1,1,1,1,1,15,-,-,-,17,34,12,366,29,Y,N,1,1,1,14,No Breakfast,9,NA
0,2,14,8,M,0,1,2,1,1,1,1,1,1,1,1,15,-,-,-,15,27,10,366,29,Y,N,1,1,1,15,No Breakfast,5,NA
0,2,14,8,M,0,1,2,1,1,1,1,1,1,1,1,10,-,-,-,19,26,9,366,29,Y,N,1,1,1,16,No Breakfast,4,NA
0,2,14,8,M,0,1,2,1,1,1,1,1,1,1,1,0,-,-,-,21,3,1,366,29,Y,N,1,1,1,17,No Breakfast,3,NA
0,2,14,8,M,0,1,2,1,1,1,1,1,1,1,1,4,-,-,-,26,29,10,366,29,Y,N,1,1,1,18,No Breakfast,5,NA
0,2,14,8,M,0,1,2,1,1,1,1,1,1,1,1,0,-,-,-,24,10,4,366,29,Y,N,1,1,1,19,No Breakfast,3,NA
0,2,14,8,M,0,1,2,1,1,1,1,1,1,1,1,15,-,-,-,14,25,9,366,29,Y,N,1,1,1,20,No Breakfast,5,NA
0,2,8,8,F,0,0,3,1,0,1,1,1,1,1,1,5,0,39,31,0,45,16,401,30,Y,Y,0.875,1,0.833333333,1,No Breakfast,13,18
0,2,8,8,F,0,0,3,1,0,1,1,1,1,1,1,10,10,18,28,0,50,18,401,30,Y,Y,0.875,1,0.833333333,2,No Breakfast,6,18
0,2,8,8,F,0,0,3,1,0,1,1,1,1,1,1,20,0,0,17,17,48,17,401,30,Y,Y,0.875,1,0.833333333,3,No Breakfast,5,6
0,2,8,8,F,0,0,3,1,0,1,1,1,1,1,1,18,0,2,24,22,63,22,401,30,Y,Y,0.875,1,0.833333333,4,No Breakfast,4,5
0,2,8,8,F,0,0,3,1,0,1,1,1,1,1,1,20,1,22,21,0,60,21,401,30,Y,Y,0.875,1,0.833333333,5,No Breakfast,4,5
0,2,8,8,F,0,0,3,1,0,1,1,1,1,1,1,15,0,3,26,23,60,21,401,30,Y,Y,0.875,1,0.833333333,6,No Breakfast,4,7
0,2,8,8,F,0,0,3,1,0,1,1,1,1,1,1,15,0,4,24,20,53,19,401,30,Y,Y,0.875,1,0.833333333,7,No Breakfast,4,6
0,2,8,8,F,0,0,3,1,0,1,1,1,1,1,1,18,0,0,24,24,63,22,401,30,Y,Y,0.875,1,0.833333333,8,No Breakfast,4,4
0,2,8,8,F,0,0,3,1,0,1,1,1,1,1,1,18,0,0,18,18,46,16,401,30,Y,Y,0.875,1,0.833333333,9,No Breakfast,4,5
0,2,8,8,F,0,0,3,1,0,1,1,1,1,1,1,20,0,0,25,25,70,25,401,30,Y,Y,0.875,1,0.833333333,10,No Breakfast,5,4
0,2,8,8,F,0,0,3,1,0,1,1,1,1,1,1,15,-,-,-,23,50,18,401,30,Y,N,0.875,1,0.833333333,11,No Breakfast,9,NA
0,2,8,8,F,0,0,3,1,0,1,1,1,1,1,1,10,-,-,-,26,45,16,401,30,Y,N,0.875,1,0.833333333,12,No Breakfast,4,NA
0,2,8,8,F,0,0,3,1,0,1,1,1,1,1,1,7,-,-,-,27,41,14,401,30,Y,N,0.875,1,0.833333333,13,No Breakfast,5,NA
0,2,8,8,F,0,0,3,1,0,1,1,1,1,1,1,7,-,-,-,25,34,12,401,30,Y,N,0.875,1,0.833333333,14,No Breakfast,4,NA
0,2,8,8,F,0,0,3,1,0,1,1,1,1,1,1,6,-,-,-,24,27,10,401,30,Y,N,0.875,1,0.833333333,15,No Breakfast,6,NA
0,2,8,8,F,0,0,3,1,0,1,1,1,1,1,1,6,-,-,-,23,26,9,401,30,Y,N,0.875,1,0.833333333,16,No Breakfast,3,NA
0,2,8,8,F,0,0,3,1,0,1,1,1,1,1,1,0,-,-,-,21,3,1,401,30,Y,N,0.875,1,0.833333333,17,No Breakfast,2,NA
0,2,8,8,F,0,0,3,1,0,1,1,1,1,1,1,0,-,-,-,30,29,10,401,30,Y,N,0.875,1,0.833333333,18,No Breakfast,4,NA
0,2,8,8,F,0,0,3,1,0,1,1,1,1,1,1,0,-,-,-,24,10,4,401,30,Y,N,0.875,1,0.833333333,19,No Breakfast,3,NA
0,2,8,8,F,0,0,3,1,0,1,1,1,1,1,1,0,-,-,-,29,25,9,401,30,Y,N,0.875,1,0.833333333,20,No Breakfast,4,NA
0,2,10,8,F,0,1,5,0,0,0,1,1,1,1,0,15,12,0,21,9,45,16,422,31,Y,Y,0.5,1,0.333333333,1,No Breakfast,71,25
0,2,10,8,F,0,1,5,0,0,0,1,1,1,1,0,10,0,12,28,16,50,18,422,31,Y,Y,0.5,1,0.333333333,2,No Breakfast,8,13
0,2,10,8,F,0,1,5,0,0,0,1,1,1,1,0,3,1,21,34,12,48,17,422,31,Y,Y,0.5,1,0.333333333,3,No Breakfast,13,12
0,2,10,8,F,0,1,5,0,0,0,1,1,1,1,0,10,8,3,32,21,63,22,422,31,Y,Y,0.5,1,0.333333333,4,No Breakfast,5,21
0,2,10,8,F,0,1,5,0,0,0,1,1,1,1,0,15,3,18,26,5,60,21,422,31,Y,Y,0.5,1,0.333333333,5,No Breakfast,7,24
0,2,10,8,F,0,1,5,0,0,0,1,1,1,1,0,10,3,6,31,22,60,21,422,31,Y,Y,0.5,1,0.333333333,6,No Breakfast,5,27
0,2,10,8,F,0,1,5,0,0,0,1,1,1,1,0,3,9,48,36,0,53,19,422,31,Y,Y,0.5,1,0.333333333,7,No Breakfast,9,11
0,2,10,8,F,0,1,5,0,0,0,1,1,1,1,0,10,0,0,32,32,63,22,422,31,Y,Y,0.5,1,0.333333333,8,No Breakfast,10,11
0,2,10,8,F,0,1,5,0,0,0,1,1,1,1,0,10,10,0,26,16,46,16,422,31,Y,Y,0.5,1,0.333333333,9,No Breakfast,8,11
0,2,10,8,F,0,1,5,0,0,0,1,1,1,1,0,20,1,0,25,24,70,25,422,31,Y,Y,0.5,1,0.333333333,10,No Breakfast,9,9
0,2,10,8,F,0,1,5,0,0,0,1,1,1,1,0,5,-,-,-,33,50,18,422,31,Y,N,0.5,1,0.333333333,11,No Breakfast,21,NA
0,2,10,8,F,0,1,5,0,0,0,1,1,1,1,0,0,-,-,-,36,45,16,422,31,Y,N,0.5,1,0.333333333,12,No Breakfast,23,NA
0,2,10,8,F,0,1,5,0,0,0,1,1,1,1,0,10,-,-,-,24,41,14,422,31,Y,N,0.5,1,0.333333333,13,No Breakfast,7,NA
0,2,10,8,F,0,1,5,0,0,0,1,1,1,1,0,2,-,-,-,30,34,12,422,31,Y,N,0.5,1,0.333333333,14,No Breakfast,19,NA
0,2,10,8,F,0,1,5,0,0,0,1,1,1,1,0,1,-,-,-,29,27,10,422,31,Y,N,0.5,1,0.333333333,15,No Breakfast,3,NA
0,2,10,8,F,0,1,5,0,0,0,1,1,1,1,0,5,-,-,-,24,26,9,422,31,Y,N,0.5,1,0.333333333,16,No Breakfast,5,NA
0,2,10,8,F,0,1,5,0,0,0,1,1,1,1,0,0,-,-,-,21,3,1,422,31,Y,N,0.5,1,0.333333333,17,No Breakfast,6,NA
0,2,10,8,F,0,1,5,0,0,0,1,1,1,1,0,10,-,-,-,20,29,10,422,31,Y,N,0.5,1,0.333333333,18,No Breakfast,4,NA
0,2,10,8,F,0,1,5,0,0,0,1,1,1,1,0,5,-,-,-,19,10,4,422,31,Y,N,0.5,1,0.333333333,19,No Breakfast,13,NA
0,2,10,8,F,0,1,5,0,0,0,1,1,1,1,0,0,-,-,-,29,25,9,422,31,Y,N,0.5,1,0.333333333,20,No Breakfast,3,NA
0,2,17,8,F,0,1,5,0,0,1,1,1,1,1,1,15,3,2,21,16,45,16,337,32,Y,Y,0.75,1,0.666666667,1,No Breakfast,23,20
0,2,17,8,F,0,1,5,0,0,1,1,1,1,1,1,15,8,0,23,15,50,18,337,32,Y,Y,0.75,1,0.666666667,2,No Breakfast,7,9
0,2,17,8,F,0,1,5,0,0,1,1,1,1,1,1,10,6,3,27,18,48,17,337,32,Y,Y,0.75,1,0.666666667,3,No Breakfast,8,12
0,2,17,8,F,0,1,5,0,0,1,1,1,1,1,1,20,2,10,22,10,63,22,337,32,Y,Y,0.75,1,0.666666667,4,No Breakfast,4,9
0,2,17,8,F,0,1,5,0,0,1,1,1,1,1,1,5,26,16,36,0,60,21,337,32,Y,Y,0.75,1,0.666666667,5,No Breakfast,4,9
0,2,17,8,F,0,1,5,0,0,1,1,1,1,1,1,15,0,3,26,23,60,21,337,32,Y,Y,0.75,1,0.666666667,6,No Breakfast,4,7
0,2,17,8,F,0,1,5,0,0,1,1,1,1,1,1,20,8,10,19,1,53,19,337,32,Y,Y,0.75,1,0.666666667,7,No Breakfast,3,7
0,2,17,8,F,0,1,5,0,0,1,1,1,1,1,1,20,0,0,22,22,63,22,337,32,Y,Y,0.75,1,0.666666667,8,No Breakfast,4,7
0,2,17,8,F,0,1,5,0,0,1,1,1,1,1,1,3,0,42,33,0,46,16,337,32,Y,Y,0.75,1,0.666666667,9,No Breakfast,7,6
0,2,17,8,F,0,1,5,0,0,1,1,1,1,1,1,15,0,3,30,27,70,25,337,32,Y,Y,0.75,1,0.666666667,10,No Breakfast,5,4
0,2,17,8,F,0,1,5,0,0,1,1,1,1,1,1,15,-,-,-,23,50,18,337,32,Y,N,0.75,1,0.666666667,11,No Breakfast,12,NA
0,2,17,8,F,0,1,5,0,0,1,1,1,1,1,1,20,-,-,-,16,45,16,337,32,Y,N,0.75,1,0.666666667,12,No Breakfast,9,NA
0,2,17,8,F,0,1,5,0,0,1,1,1,1,1,1,10,-,-,-,24,41,14,337,32,Y,N,0.75,1,0.666666667,13,No Breakfast,3,NA
0,2,17,8,F,0,1,5,0,0,1,1,1,1,1,1,10,-,-,-,22,34,12,337,32,Y,N,0.75,1,0.666666667,14,No Breakfast,3,NA
0,2,17,8,F,0,1,5,0,0,1,1,1,1,1,1,5,-,-,-,25,27,10,337,32,Y,N,0.75,1,0.666666667,15,No Breakfast,4,NA
0,2,17,8,F,0,1,5,0,0,1,1,1,1,1,1,5,-,-,-,24,26,9,337,32,Y,N,0.75,1,0.666666667,16,No Breakfast,3,NA
0,2,17,8,F,0,1,5,0,0,1,1,1,1,1,1,3,-,-,-,18,3,1,337,32,Y,N,0.75,1,0.666666667,17,No Breakfast,3,NA
0,2,17,8,F,0,1,5,0,0,1,1,1,1,1,1,15,-,-,-,15,29,10,337,32,Y,N,0.75,1,0.666666667,18,No Breakfast,3,NA
0,2,17,8,F,0,1,5,0,0,1,1,1,1,1,1,5,-,-,-,19,10,4,337,32,Y,N,0.75,1,0.666666667,19,No Breakfast,3,NA
0,2,17,8,F,0,1,5,0,0,1,1,1,1,1,1,10,-,-,-,19,25,9,337,32,Y,N,0.75,1,0.666666667,20,No Breakfast,3,NA
0,2,11,9,F,0,1,9,1,1,1,1,1,1,1,1,10,3,2,18,13,22,8,383,33,Y,Y,1,1,1,1,No Breakfast,142,61
0,2,11,9,F,0,1,9,1,1,1,1,1,1,1,1,8,0,8,21,13,27,9,383,33,Y,Y,1,1,1,2,No Breakfast,11,10
0,2,11,9,F,0,1,9,1,1,1,1,1,1,1,1,8,0,6,28,22,46,16,383,33,Y,Y,1,1,1,3,No Breakfast,8,7
0,2,11,9,F,0,1,9,1,1,1,1,1,1,1,1,12,1,0,24,23,47,16,383,33,Y,Y,1,1,1,4,No Breakfast,4,17
0,2,11,9,F,0,1,9,1,1,1,1,1,1,1,1,12,0,0,25,25,49,17,383,33,Y,Y,1,1,1,5,No Breakfast,7,8
0,2,11,9,F,0,1,9,1,1,1,1,1,1,1,1,12,0,0,24,24,46,16,383,33,Y,Y,1,1,1,6,No Breakfast,10,8
0,2,11,9,F,0,1,9,1,1,1,1,1,1,1,1,13,1,0,22,21,43,15,383,33,Y,Y,1,1,1,7,No Breakfast,9,17
0,2,11,9,F,0,1,9,1,1,1,1,1,1,1,1,12,2,0,21,19,37,13,383,33,Y,Y,1,1,1,8,No Breakfast,8,8
0,2,11,9,F,0,1,9,1,1,1,1,1,1,1,1,10,1,3,25,21,42,15,383,33,Y,Y,1,1,1,9,No Breakfast,4,20
0,2,11,9,F,0,1,9,1,1,1,1,1,1,1,1,11,0,12,28,16,54,19,383,33,Y,Y,1,1,1,10,No Breakfast,2,11
0,2,11,9,F,0,1,9,1,1,1,1,1,1,1,1,8,-,-,-,25,37,13,383,33,Y,N,1,1,1,11,No Breakfast,19,NA
0,2,11,9,F,0,1,9,1,1,1,1,1,1,1,1,8,-,-,-,23,32,11,383,33,Y,N,1,1,1,12,No Breakfast,11,NA
0,2,11,9,F,0,1,9,1,1,1,1,1,1,1,1,9,-,-,-,17,17,6,383,33,Y,N,1,1,1,13,No Breakfast,3,NA
0,2,11,9,F,0,1,9,1,1,1,1,1,1,1,1,8,-,-,-,21,26,9,383,33,Y,N,1,1,1,14,No Breakfast,4,NA
0,2,11,9,F,0,1,9,1,1,1,1,1,1,1,1,10,-,-,-,16,18,6,383,33,Y,N,1,1,1,15,No Breakfast,15,NA
0,2,11,9,F,0,1,9,1,1,1,1,1,1,1,1,7,-,-,-,18,15,5,383,33,Y,N,1,1,1,16,No Breakfast,7,NA
0,2,11,9,F,0,1,9,1,1,1,1,1,1,1,1,8,-,-,-,18,18,6,383,33,Y,N,1,1,1,17,No Breakfast,3,NA
0,2,11,9,F,0,1,9,1,1,1,1,1,1,1,1,8,-,-,-,15,8,3,383,33,Y,N,1,1,1,18,No Breakfast,7,NA
0,2,11,9,F,0,1,9,1,1,1,1,1,1,1,1,5,-,-,-,17,5,2,383,33,Y,N,1,1,1,19,No Breakfast,4,NA
0,2,11,9,F,0,1,9,1,1,1,1,1,1,1,1,6,-,-,-,16,6,2,383,33,Y,N,1,1,1,20,No Breakfast,3,NA
0,2,18,9,M,0,1,2,1,1,0,1,1,1,1,1,2,0,9,26,17,22,8,448,34,Y,Y,0.875,1,0.833333333,1,No Breakfast,23,30
0,2,18,9,M,0,1,2,1,1,0,1,1,1,1,1,5,0,12,24,12,27,9,448,34,Y,Y,0.875,1,0.833333333,2,No Breakfast,14,15
0,2,18,9,M,0,1,2,1,1,0,1,1,1,1,1,8,0,6,28,22,46,16,448,34,Y,Y,0.875,1,0.833333333,3,No Breakfast,6,9
0,2,18,9,M,0,1,2,1,1,0,1,1,1,1,1,9,0,6,27,21,47,16,448,34,Y,Y,0.875,1,0.833333333,4,No Breakfast,5,9
0,2,18,9,M,0,1,2,1,1,0,1,1,1,1,1,10,0,3,27,24,49,17,448,34,Y,Y,0.875,1,0.833333333,5,No Breakfast,7,6
0,2,18,9,M,0,1,2,1,1,0,1,1,1,1,1,12,0,0,24,24,46,16,448,34,Y,Y,0.875,1,0.833333333,6,No Breakfast,4,5
0,2,18,9,M,0,1,2,1,1,0,1,1,1,1,1,9,1,0,26,25,43,15,448,34,Y,Y,0.875,1,0.833333333,7,No Breakfast,4,7
0,2,18,9,M,0,1,2,1,1,0,1,1,1,1,1,10,0,0,23,23,37,13,448,34,Y,Y,0.875,1,0.833333333,8,No Breakfast,6,7
0,2,18,9,M,0,1,2,1,1,0,1,1,1,1,1,8,0,15,27,12,42,15,448,34,Y,Y,0.875,1,0.833333333,9,No Breakfast,7,4
0,2,18,9,M,0,1,2,1,1,0,1,1,1,1,1,10,0,15,29,14,54,19,448,34,Y,Y,0.875,1,0.833333333,10,No Breakfast,4,4
0,2,18,9,M,0,1,2,1,1,0,1,1,1,1,1,9,-,-,-,24,37,13,448,34,Y,N,0.875,1,0.833333333,11,No Breakfast,12,NA
0,2,18,9,M,0,1,2,1,1,0,1,1,1,1,1,0,-,-,-,31,32,11,448,34,Y,N,0.875,1,0.833333333,12,No Breakfast,5,NA
0,2,18,9,M,0,1,2,1,1,0,1,1,1,1,1,0,-,-,-,26,17,6,448,34,Y,N,0.875,1,0.833333333,13,No Breakfast,5,NA
0,2,18,9,M,0,1,2,1,1,0,1,1,1,1,1,0,-,-,-,29,26,9,448,34,Y,N,0.875,1,0.833333333,14,No Breakfast,5,NA
0,2,18,9,M,0,1,2,1,1,0,1,1,1,1,1,0,-,-,-,26,18,6,448,34,Y,N,0.875,1,0.833333333,15,No Breakfast,3,NA
0,2,18,9,M,0,1,2,1,1,0,1,1,1,1,1,0,-,-,-,25,15,5,448,34,Y,N,0.875,1,0.833333333,16,No Breakfast,6,NA
0,2,18,9,M,0,1,2,1,1,0,1,1,1,1,1,0,-,-,-,26,18,6,448,34,Y,N,0.875,1,0.833333333,17,No Breakfast,5,NA
0,2,18,9,M,0,1,2,1,1,0,1,1,1,1,1,0,-,-,-,23,8,3,448,34,Y,N,0.875,1,0.833333333,18,No Breakfast,2,NA
0,2,18,9,M,0,1,2,1,1,0,1,1,1,1,1,0,-,-,-,22,5,2,448,34,Y,N,0.875,1,0.833333333,19,No Breakfast,3,NA
0,2,18,9,M,0,1,2,1,1,0,1,1,1,1,1,0,-,-,-,22,6,2,448,34,Y,N,0.875,1,0.833333333,20,No Breakfast,2,NA
0,2,7,9,M,0,1,5,0,1,0,0,0,0,0,0,10,4,2,18,12,22,8,384,35,Y,Y,0.125,0,0.166666667,1,No Breakfast,22,54
0,2,7,9,M,0,1,5,0,1,0,0,0,0,0,0,8,0,10,21,11,27,9,384,35,Y,Y,0.125,0,0.166666667,2,No Breakfast,15,18
0,2,7,9,M,0,1,5,0,1,0,0,0,0,0,0,18,0,0,18,18,46,16,384,35,Y,Y,0.125,0,0.166666667,3,No Breakfast,8,11
0,2,7,9,M,0,1,5,0,1,0,0,0,0,0,0,16,0,0,20,20,47,16,384,35,Y,Y,0.125,0,0.166666667,4,No Breakfast,7,9
0,2,7,9,M,0,1,5,0,1,0,0,0,0,0,0,15,0,0,22,22,49,17,384,35,Y,Y,0.125,0,0.166666667,5,No Breakfast,7,10
0,2,7,9,M,0,1,5,0,1,0,0,0,0,0,0,12,0,0,24,24,46,16,384,35,Y,Y,0.125,0,0.166666667,6,No Breakfast,6,8
0,2,7,9,M,0,1,5,0,1,0,0,0,0,0,0,15,0,0,20,20,43,15,384,35,Y,Y,0.125,0,0.166666667,7,No Breakfast,8,15
0,2,7,9,M,0,1,5,0,1,0,0,0,0,0,0,5,0,21,28,7,37,13,384,35,Y,Y,0.125,0,0.166666667,8,No Breakfast,6,9
0,2,7,9,M,0,1,5,0,1,0,0,0,0,0,0,12,2,0,23,21,42,15,384,35,Y,Y,0.125,0,0.166666667,9,No Breakfast,5,11
0,2,7,9,M,0,1,5,0,1,0,0,0,0,0,0,15,0,6,24,18,54,19,384,35,Y,Y,0.125,0,0.166666667,10,No Breakfast,5,8
0,2,7,9,M,0,1,5,0,1,0,0,0,0,0,0,10,-,-,-,23,37,13,384,35,Y,N,0.125,0,0.166666667,11,No Breakfast,19,NA
0,2,7,9,M,0,1,5,0,1,0,0,0,0,0,0,12,-,-,-,19,32,11,384,35,Y,N,0.125,0,0.166666667,12,No Breakfast,7,NA
0,2,7,9,M,0,1,5,0,1,0,0,0,0,0,0,8,-,-,-,18,17,6,384,35,Y,N,0.125,0,0.166666667,13,No Breakfast,9,NA
0,2,7,9,M,0,1,5,0,1,0,0,0,0,0,0,12,-,-,-,17,26,9,384,35,Y,N,0.125,0,0.166666667,14,No Breakfast,7,NA
0,2,7,9,M,0,1,5,0,1,0,0,0,0,0,0,5,-,-,-,21,18,6,384,35,Y,N,0.125,0,0.166666667,15,No Breakfast,9,NA
0,2,7,9,M,0,1,5,0,1,0,0,0,0,0,0,5,-,-,-,20,15,5,384,35,Y,N,0.125,0,0.166666667,16,No Breakfast,5,NA
0,2,7,9,M,0,1,5,0,1,0,0,0,0,0,0,0,-,-,-,26,18,6,384,35,Y,N,0.125,0,0.166666667,17,No Breakfast,7,NA
0,2,7,9,M,0,1,5,0,1,0,0,0,0,0,0,0,-,-,-,23,8,3,384,35,Y,N,0.125,0,0.166666667,18,No Breakfast,12,NA
0,2,7,9,M,0,1,5,0,1,0,0,0,0,0,0,0,-,-,-,22,5,2,384,35,Y,N,0.125,0,0.166666667,19,No Breakfast,3,NA
0,2,7,9,M,0,1,5,0,1,0,0,0,0,0,0,0,-,-,-,22,6,2,384,35,Y,N,0.125,0,0.166666667,20,No Breakfast,4,NA
0,2,36,9,M,0,1,8,0,1,0,0,0,1,1,1,0,3,15,28,10,22,8,402,36,Y,Y,0.5,0,0.666666667,1,No Breakfast,11,51
0,2,36,9,M,0,1,8,0,1,0,0,0,1,1,1,6,15,0,23,8,27,9,402,36,Y,Y,0.5,0,0.666666667,2,No Breakfast,6,30
0,2,36,9,M,0,1,8,0,1,0,0,0,1,1,1,12,4,0,24,20,46,16,402,36,Y,Y,0.5,0,0.666666667,3,No Breakfast,4,29
0,2,36,9,M,0,1,8,0,1,0,0,0,1,1,1,10,1,0,26,25,47,16,402,36,Y,Y,0.5,0,0.666666667,4,No Breakfast,6,19
0,2,36,9,M,0,1,8,0,1,0,0,0,1,1,1,12,1,0,25,24,49,17,402,36,Y,Y,0.5,0,0.666666667,5,No Breakfast,3,9
0,2,36,9,M,0,1,8,0,1,0,0,0,1,1,1,10,0,0,26,26,46,16,402,36,Y,Y,0.5,0,0.666666667,6,No Breakfast,7,6
0,2,36,9,M,0,1,8,0,1,0,0,0,1,1,1,6,0,6,29,23,43,15,402,36,Y,Y,0.5,0,0.666666667,7,No Breakfast,5,5
0,2,36,9,M,0,1,8,0,1,0,0,0,1,1,1,10,5,0,23,18,37,13,402,36,Y,Y,0.5,0,0.666666667,8,No Breakfast,3,12
0,2,36,9,M,0,1,8,0,1,0,0,0,1,1,1,12,3,0,23,20,42,15,402,36,Y,Y,0.5,0,0.666666667,9,No Breakfast,3,9
0,2,36,9,M,0,1,8,0,1,0,0,0,1,1,1,18,12,0,21,9,54,19,402,36,Y,Y,0.5,0,0.666666667,10,No Breakfast,4,19
0,2,36,9,M,0,1,8,0,1,0,0,0,1,1,1,10,-,-,-,23,37,13,402,36,Y,N,0.5,0,0.666666667,11,No Breakfast,25,NA
0,2,36,9,M,0,1,8,0,1,0,0,0,1,1,1,12,-,-,-,19,32,11,402,36,Y,N,0.5,0,0.666666667,12,No Breakfast,6,NA
0,2,36,9,M,0,1,8,0,1,0,0,0,1,1,1,0,-,-,-,26,17,6,402,36,Y,N,0.5,0,0.666666667,13,No Breakfast,4,NA
0,2,36,9,M,0,1,8,0,1,0,0,0,1,1,1,6,-,-,-,23,26,9,402,36,Y,N,0.5,0,0.666666667,14,No Breakfast,4,NA
0,2,36,9,M,0,1,8,0,1,0,0,0,1,1,1,3,-,-,-,23,18,6,402,36,Y,N,0.5,0,0.666666667,15,No Breakfast,3,NA
0,2,36,9,M,0,1,8,0,1,0,0,0,1,1,1,3,-,-,-,22,15,5,402,36,Y,N,0.5,0,0.666666667,16,No Breakfast,3,NA
0,2,36,9,M,0,1,8,0,1,0,0,0,1,1,1,10,-,-,-,16,18,6,402,36,Y,N,0.5,0,0.666666667,17,No Breakfast,4,NA
0,2,36,9,M,0,1,8,0,1,0,0,0,1,1,1,0,-,-,-,23,8,3,402,36,Y,N,0.5,0,0.666666667,18,No Breakfast,2,NA
0,2,36,9,M,0,1,8,0,1,0,0,0,1,1,1,0,-,-,-,22,5,2,402,36,Y,N,0.5,0,0.666666667,19,No Breakfast,3,NA
0,2,36,9,M,0,1,8,0,1,0,0,0,1,1,1,0,-,-,-,22,6,2,402,36,Y,N,0.5,0,0.666666667,20,No Breakfast,3,NA
1,3,10,10,M,1,1,7,1,1,1,1,1,1,1,1,20,0,0,11,11,32,11,354,37,Y,Y,1,1,1,1,Breakfast,19,40
1,3,10,10,M,1,1,7,1,1,1,1,1,1,1,1,10,0,0,18,18,22,8,354,37,Y,Y,1,1,1,2,Breakfast,8,17
1,3,10,10,M,1,1,7,1,1,1,1,1,1,1,1,0,0,21,25,4,15,5,354,37,Y,Y,1,1,1,3,Breakfast,6,11
1,3,10,10,M,1,1,7,1,1,1,1,1,1,1,1,10,3,0,14,11,10,4,354,37,Y,Y,1,1,1,4,Breakfast,5,17
1,3,10,10,M,1,1,7,1,1,1,1,1,1,1,1,5,2,0,18,16,9,3,354,37,Y,Y,1,1,1,5,Breakfast,21,13
1,3,10,10,M,1,1,7,1,1,1,1,1,1,1,1,1,0,2,19,17,1,0,354,37,Y,Y,1,1,1,6,Breakfast,3,10
1,3,10,10,M,1,1,7,1,1,1,1,1,1,1,1,0,0,2,24,22,10,4,354,37,Y,Y,1,1,1,7,Breakfast,4,11
1,3,10,10,M,1,1,7,1,1,1,1,1,1,1,1,0,0,2,20,18,0,0,354,37,Y,Y,1,1,1,8,Breakfast,3,7
1,3,10,10,M,1,1,7,1,1,1,1,1,1,1,1,0,0,2,20,18,1,0,354,37,Y,Y,1,1,1,9,Breakfast,6,8
1,3,10,10,M,1,1,7,1,1,1,1,1,1,1,1,0,0,2,20,18,0,0,354,37,Y,Y,1,1,1,10,Breakfast,8,10
1,3,10,10,M,1,1,7,1,1,1,1,1,1,1,1,10,-,-,-,18,23,8,354,37,Y,N,1,1,1,11,Breakfast,23,NA
1,3,10,10,M,1,1,7,1,1,1,1,1,1,1,1,8,-,-,-,17,15,5,354,37,Y,N,1,1,1,12,Breakfast,5,NA
1,3,10,10,M,1,1,7,1,1,1,1,1,1,1,1,0,-,-,-,22,5,2,354,37,Y,N,1,1,1,13,Breakfast,6,NA
1,3,10,10,M,1,1,7,1,1,1,1,1,1,1,1,0,-,-,-,24,10,4,354,37,Y,N,1,1,1,14,Breakfast,3,NA
1,3,10,10,M,1,1,7,1,1,1,1,1,1,1,1,0,-,-,-,20,0,0,354,37,Y,N,1,1,1,15,Breakfast,2,NA
1,3,10,10,M,1,1,7,1,1,1,1,1,1,1,1,0,-,-,-,20,1,0,354,37,Y,N,1,1,1,16,Breakfast,3,NA
1,3,10,10,M,1,1,7,1,1,1,1,1,1,1,1,0,-,-,-,20,0,0,354,37,Y,N,1,1,1,17,Breakfast,3,NA
1,3,10,10,M,1,1,7,1,1,1,1,1,1,1,1,0,-,-,-,20,0,0,354,37,Y,N,1,1,1,18,Breakfast,3,NA
1,3,10,10,M,1,1,7,1,1,1,1,1,1,1,1,0,-,-,-,20,0,0,354,37,Y,N,1,1,1,19,Breakfast,4,NA
1,3,10,10,M,1,1,7,1,1,1,1,1,1,1,1,0,-,-,-,20,0,0,354,37,Y,N,1,1,1,20,Breakfast,3,NA
1,3,13,10,M,1,1,2,1,1,1,1,1,0,0,1,2,0,6,29,23,32,11,390,38,Y,Y,0.75,1,0.666666667,1,Breakfast,42,24
1,3,13,10,M,1,1,2,1,1,1,1,1,0,0,1,5,0,6,23,17,22,8,390,38,Y,Y,0.75,1,0.666666667,2,Breakfast,7,12
1,3,13,10,M,1,1,2,1,1,1,1,1,0,0,1,0,0,21,25,4,15,5,390,38,Y,Y,0.75,1,0.666666667,3,Breakfast,5,8
1,3,13,10,M,1,1,2,1,1,1,1,1,0,0,1,0,0,4,24,20,10,4,390,38,Y,Y,0.75,1,0.666666667,4,Breakfast,4,7
1,3,13,10,M,1,1,2,1,1,1,1,1,0,0,1,0,0,4,23,19,9,3,390,38,Y,Y,0.75,1,0.666666667,5,Breakfast,11,8
1,3,13,10,M,1,1,2,1,1,1,1,1,0,0,1,0,1,2,20,17,1,0,390,38,Y,Y,0.75,1,0.666666667,6,Breakfast,12,13
1,3,13,10,M,1,1,2,1,1,1,1,1,0,0,1,0,1,2,24,21,10,4,390,38,Y,Y,0.75,1,0.666666667,7,Breakfast,4,17
1,3,13,10,M,1,1,2,1,1,1,1,1,0,0,1,0,3,0,20,17,0,0,390,38,Y,Y,0.75,1,0.666666667,8,Breakfast,4,18
1,3,13,10,M,1,1,2,1,1,1,1,1,0,0,1,0,0,2,20,18,1,0,390,38,Y,Y,0.75,1,0.666666667,9,Breakfast,6,6
1,3,13,10,M,1,1,2,1,1,1,1,1,0,0,1,0,0,2,20,18,0,0,390,38,Y,Y,0.75,1,0.666666667,10,Breakfast,5,6
1,3,13,10,M,1,1,2,1,1,1,1,1,0,0,1,0,-,-,-,28,23,8,390,38,Y,N,0.75,1,0.666666667,11,Breakfast,14,NA
1,3,13,10,M,1,1,2,1,1,1,1,1,0,0,1,3,-,-,-,22,15,5,390,38,Y,N,0.75,1,0.666666667,12,Breakfast,5,NA
1,3,13,10,M,1,1,2,1,1,1,1,1,0,0,1,0,-,-,-,22,5,2,390,38,Y,N,0.75,1,0.666666667,13,Breakfast,7,NA
1,3,13,10,M,1,1,2,1,1,1,1,1,0,0,1,0,-,-,-,24,10,4,390,38,Y,N,0.75,1,0.666666667,14,Breakfast,3,NA
1,3,13,10,M,1,1,2,1,1,1,1,1,0,0,1,0,-,-,-,20,0,0,390,38,Y,N,0.75,1,0.666666667,15,Breakfast,3,NA
1,3,13,10,M,1,1,2,1,1,1,1,1,0,0,1,0,-,-,-,20,1,0,390,38,Y,N,0.75,1,0.666666667,16,Breakfast,8,NA
1,3,13,10,M,1,1,2,1,1,1,1,1,0,0,1,0,-,-,-,20,0,0,390,38,Y,N,0.75,1,0.666666667,17,Breakfast,5,NA
1,3,13,10,M,1,1,2,1,1,1,1,1,0,0,1,0,-,-,-,20,0,0,390,38,Y,N,0.75,1,0.666666667,18,Breakfast,3,NA
1,3,13,10,M,1,1,2,1,1,1,1,1,0,0,1,0,-,-,-,20,0,0,390,38,Y,N,0.75,1,0.666666667,19,Breakfast,4,NA
1,3,13,10,M,1,1,2,1,1,1,1,1,0,0,1,0,-,-,-,20,0,0,390,38,Y,N,0.75,1,0.666666667,20,Breakfast,3,NA
1,3,15,10,M,1,1,8,1,1,0,0,0,0,0,1,10,2,0,21,19,32,11,380,39,Y,Y,0.375,0,0.5,1,Breakfast,36,61
1,3,15,10,M,1,1,8,1,1,0,0,0,0,0,1,5,3,2,23,18,22,8,380,39,Y,Y,0.375,0,0.5,2,Breakfast,12,23
1,3,15,10,M,1,1,8,1,1,0,0,0,0,0,1,10,10,2,15,3,15,5,380,39,Y,Y,0.375,0,0.5,3,Breakfast,13,19
1,3,15,10,M,1,1,8,1,1,0,0,0,0,0,1,0,0,4,24,20,10,4,380,39,Y,Y,0.375,0,0.5,4,Breakfast,4,7
1,3,15,10,M,1,1,8,1,1,0,0,0,0,0,1,0,0,4,23,19,9,3,380,39,Y,Y,0.375,0,0.5,5,Breakfast,4,4
1,3,15,10,M,1,1,8,1,1,0,0,0,0,0,1,0,0,2,20,18,1,0,380,39,Y,Y,0.375,0,0.5,6,Breakfast,4,6
1,3,15,10,M,1,1,8,1,1,0,0,0,0,0,1,0,0,2,24,22,10,4,380,39,Y,Y,0.375,0,0.5,7,Breakfast,4,5
1,3,15,10,M,1,1,8,1,1,0,0,0,0,0,1,0,0,2,20,18,0,0,380,39,Y,Y,0.375,0,0.5,8,Breakfast,4,5
1,3,15,10,M,1,1,8,1,1,0,0,0,0,0,1,0,0,2,20,18,1,0,380,39,Y,Y,0.375,0,0.5,9,Breakfast,4,6
1,3,15,10,M,1,1,8,1,1,0,0,0,0,0,1,0,1,2,20,17,0,0,380,39,Y,Y,0.375,0,0.5,10,Breakfast,3,14
1,3,15,10,M,1,1,8,1,1,0,0,0,0,0,1,10,-,-,-,18,23,8,380,39,Y,N,0.375,0,0.5,11,Breakfast,15,NA
1,3,15,10,M,1,1,8,1,1,0,0,0,0,0,1,0,-,-,-,25,15,5,380,39,Y,N,0.375,0,0.5,12,Breakfast,3,NA
1,3,15,10,M,1,1,8,1,1,0,0,0,0,0,1,0,-,-,-,22,5,2,380,39,Y,N,0.375,0,0.5,13,Breakfast,3,NA
1,3,15,10,M,1,1,8,1,1,0,0,0,0,0,1,0,-,-,-,24,10,4,380,39,Y,N,0.375,0,0.5,14,Breakfast,3,NA
1,3,15,10,M,1,1,8,1,1,0,0,0,0,0,1,0,-,-,-,20,0,0,380,39,Y,N,0.375,0,0.5,15,Breakfast,2,NA
1,3,15,10,M,1,1,8,1,1,0,0,0,0,0,1,1,-,-,-,19,1,0,380,39,Y,N,0.375,0,0.5,16,Breakfast,2,NA
1,3,15,10,M,1,1,8,1,1,0,0,0,0,0,1,0,-,-,-,20,0,0,380,39,Y,N,0.375,0,0.5,17,Breakfast,2,NA
1,3,15,10,M,1,1,8,1,1,0,0,0,0,0,1,0,-,-,-,20,0,0,380,39,Y,N,0.375,0,0.5,18,Breakfast,2,NA
1,3,15,10,M,1,1,8,1,1,0,0,0,0,0,1,0,-,-,-,20,0,0,380,39,Y,N,0.375,0,0.5,19,Breakfast,2,NA
1,3,15,10,M,1,1,8,1,1,0,0,0,0,0,1,0,-,-,-,20,0,0,380,39,Y,N,0.375,0,0.5,20,Breakfast,2,NA
1,3,30,10,F,1,1,1,1,1,1,0,0,1,1,1,0,1,3,31,27,32,11,374,40,Y,Y,0.75,0,1,1,Breakfast,21,35
1,3,30,10,F,1,1,1,1,1,1,0,0,1,1,1,2,2,3,26,21,22,8,374,40,Y,Y,0.75,0,1,2,Breakfast,6,19
1,3,30,10,F,1,1,1,1,1,1,0,0,1,1,1,5,5,0,20,15,15,5,374,40,Y,Y,0.75,0,1,3,Breakfast,4,7
1,3,30,10,F,1,1,1,1,1,1,0,0,1,1,1,0,2,2,24,20,10,4,374,40,Y,Y,0.75,0,1,4,Breakfast,4,10
1,3,30,10,F,1,1,1,1,1,1,0,0,1,1,1,4,2,0,19,17,9,3,374,40,Y,Y,0.75,0,1,5,Breakfast,7,7
1,3,30,10,F,1,1,1,1,1,1,0,0,1,1,1,0,2,0,20,18,1,0,374,40,Y,Y,0.75,0,1,6,Breakfast,3,7
1,3,30,10,F,1,1,1,1,1,1,0,0,1,1,1,10,3,1,14,10,10,4,374,40,Y,Y,0.75,0,1,7,Breakfast,4,8
1,3,30,10,F,1,1,1,1,1,1,0,0,1,1,1,0,0,2,20,18,0,0,374,40,Y,Y,0.75,0,1,8,Breakfast,4,5
1,3,30,10,F,1,1,1,1,1,1,0,0,1,1,1,1,3,0,19,16,1,0,374,40,Y,Y,0.75,0,1,9,Breakfast,4,13
1,3,30,10,F,1,1,1,1,1,1,0,0,1,1,1,0,3,2,20,15,0,0,374,40,Y,Y,0.75,0,1,10,Breakfast,3,12
1,3,30,10,F,1,1,1,1,1,1,0,0,1,1,1,3,-,-,-,25,23,8,374,40,Y,N,0.75,0,1,11,Breakfast,12,NA
1,3,30,10,F,1,1,1,1,1,1,0,0,1,1,1,4,-,-,-,21,15,5,374,40,Y,N,0.75,0,1,12,Breakfast,4,NA
1,3,30,10,F,1,1,1,1,1,1,0,0,1,1,1,5,-,-,-,17,5,2,374,40,Y,N,0.75,0,1,13,Breakfast,4,NA
1,3,30,10,F,1,1,1,1,1,1,0,0,1,1,1,10,-,-,-,14,10,4,374,40,Y,N,0.75,0,1,14,Breakfast,4,NA
1,3,30,10,F,1,1,1,1,1,1,0,0,1,1,1,0,-,-,-,20,0,0,374,40,Y,N,0.75,0,1,15,Breakfast,2,NA
1,3,30,10,F,1,1,1,1,1,1,0,0,1,1,1,0,-,-,-,20,1,0,374,40,Y,N,0.75,0,1,16,Breakfast,5,NA
1,3,30,10,F,1,1,1,1,1,1,0,0,1,1,1,0,-,-,-,20,0,0,374,40,Y,N,0.75,0,1,17,Breakfast,7,NA
1,3,30,10,F,1,1,1,1,1,1,0,0,1,1,1,0,-,-,-,20,0,0,374,40,Y,N,0.75,0,1,18,Breakfast,3,NA
1,3,30,10,F,1,1,1,1,1,1,0,0,1,1,1,0,-,-,-,20,0,0,374,40,Y,N,0.75,0,1,19,Breakfast,3,NA
1,3,30,10,F,1,1,1,1,1,1,0,0,1,1,1,0,-,-,-,20,0,0,374,40,Y,N,0.75,0,1,20,Breakfast,4,NA
1,3,12,11,F,1,1,2,1,1,1,1,0,1,1,1,10,1,2,24,21,41,14,405,41,Y,Y,0.875,0.5,1,1,Breakfast,129,82
1,3,12,11,F,1,1,2,1,1,1,1,0,1,1,1,7,2,18,27,7,40,14,405,41,Y,Y,0.875,0.5,1,2,Breakfast,33,36
1,3,12,11,F,1,1,2,1,1,1,1,0,1,1,1,20,6,0,19,13,55,19,405,41,Y,Y,0.875,0.5,1,3,Breakfast,14,34
1,3,12,11,F,1,1,2,1,1,1,1,0,1,1,1,19,1,0,24,23,67,23,405,41,Y,Y,0.875,0.5,1,4,Breakfast,10,19
1,3,12,11,F,1,1,2,1,1,1,1,0,1,1,1,18,2,0,25,23,67,23,405,41,Y,Y,0.875,0.5,1,5,Breakfast,40,9
1,3,12,11,F,1,1,2,1,1,1,1,0,1,1,1,20,3,0,21,18,61,21,405,41,Y,Y,0.875,0.5,1,6,Breakfast,33,28
1,3,12,11,F,1,1,2,1,1,1,1,0,1,1,1,18,1,0,22,21,58,20,405,41,Y,Y,0.875,0.5,1,7,Breakfast,22,32
1,3,12,11,F,1,1,2,1,1,1,1,0,1,1,1,20,3,0,20,17,57,20,405,41,Y,Y,0.875,0.5,1,8,Breakfast,40,29
1,3,12,11,F,1,1,2,1,1,1,1,0,1,1,1,17,10,0,22,12,55,19,405,41,Y,Y,0.875,0.5,1,9,Breakfast,7,109
1,3,12,11,F,1,1,2,1,1,1,1,0,1,1,1,0,0,15,32,17,35,12,405,41,Y,Y,0.875,0.5,1,10,Breakfast,8,12
1,3,12,11,F,1,1,2,1,1,1,1,0,1,1,1,0,-,-,-,31,32,11,405,41,Y,N,0.875,0.5,1,11,Breakfast,7,NA
1,3,12,11,F,1,1,2,1,1,1,1,0,1,1,1,1,-,-,-,25,16,6,405,41,Y,N,0.875,0.5,1,12,Breakfast,8,NA
1,3,12,11,F,1,1,2,1,1,1,1,0,1,1,1,0,-,-,-,25,13,5,405,41,Y,N,0.875,0.5,1,13,Breakfast,10,NA
1,3,12,11,F,1,1,2,1,1,1,1,0,1,1,1,5,-,-,-,20,15,5,405,41,Y,N,0.875,0.5,1,14,Breakfast,10,NA
1,3,12,11,F,1,1,2,1,1,1,1,0,1,1,1,0,-,-,-,23,8,3,405,41,Y,N,0.875,0.5,1,15,Breakfast,4,NA
1,3,12,11,F,1,1,2,1,1,1,1,0,1,1,1,0,-,-,-,22,5,2,405,41,Y,N,0.875,0.5,1,16,Breakfast,4,NA
1,3,12,11,F,1,1,2,1,1,1,1,0,1,1,1,0,-,-,-,22,6,2,405,41,Y,N,0.875,0.5,1,17,Breakfast,7,NA
1,3,12,11,F,1,1,2,1,1,1,1,0,1,1,1,0,-,-,-,25,15,5,405,41,Y,N,0.875,0.5,1,18,Breakfast,7,NA
1,3,12,11,F,1,1,2,1,1,1,1,0,1,1,1,0,-,-,-,20,0,0,405,41,Y,N,0.875,0.5,1,19,Breakfast,3,NA
1,3,12,11,F,1,1,2,1,1,1,1,0,1,1,1,0,-,-,-,20,0,0,405,41,Y,N,0.875,0.5,1,20,Breakfast,3,NA
1,3,18,11,M,1,1,4,1,1,0,1,1,1,1,0,19,8,0,15,7,41,14,333,42,Y,Y,0.75,1,0.666666667,1,Breakfast,12,34
1,3,18,11,M,1,1,4,1,1,0,1,1,1,1,0,18,5,4,16,7,40,14,333,42,Y,Y,0.75,1,0.666666667,2,Breakfast,10,19
1,3,18,11,M,1,1,4,1,1,0,1,1,1,1,0,16,3,0,23,20,55,19,333,42,Y,Y,0.75,1,0.666666667,3,Breakfast,9,23
1,3,18,11,M,1,1,4,1,1,0,1,1,1,1,0,19,2,0,24,22,67,23,333,42,Y,Y,0.75,1,0.666666667,4,Breakfast,9,21
1,3,18,11,M,1,1,4,1,1,0,1,1,1,1,0,19,4,0,24,20,67,23,333,42,Y,Y,0.75,1,0.666666667,5,Breakfast,7,14
1,3,18,11,M,1,1,4,1,1,0,1,1,1,1,0,19,3,0,22,19,61,21,333,42,Y,Y,0.75,1,0.666666667,6,Breakfast,7,21
1,3,18,11,M,1,1,4,1,1,0,1,1,1,1,0,20,3,0,20,17,58,20,333,42,Y,Y,0.75,1,0.666666667,7,Breakfast,6,14
1,3,18,11,M,1,1,4,1,1,0,1,1,1,1,0,20,3,0,20,17,57,20,333,42,Y,Y,0.75,1,0.666666667,8,Breakfast,7,21
1,3,18,11,M,1,1,4,1,1,0,1,1,1,1,0,19,4,0,20,16,55,19,333,42,Y,Y,0.75,1,0.666666667,9,Breakfast,3,12
1,3,18,11,M,1,1,4,1,1,0,1,1,1,1,0,18,0,0,14,14,35,12,333,42,Y,Y,0.75,1,0.666666667,10,Breakfast,8,18
1,3,18,11,M,1,1,4,1,1,0,1,1,1,1,0,15,-,-,-,16,32,11,333,42,Y,N,0.75,1,0.666666667,11,Breakfast,5,NA
1,3,18,11,M,1,1,4,1,1,0,1,1,1,1,0,15,-,-,-,11,16,6,333,42,Y,N,0.75,1,0.666666667,12,Breakfast,5,NA
1,3,18,11,M,1,1,4,1,1,0,1,1,1,1,0,12,-,-,-,13,13,5,333,42,Y,N,0.75,1,0.666666667,13,Breakfast,5,NA
1,3,18,11,M,1,1,4,1,1,0,1,1,1,1,0,8,-,-,-,17,15,5,333,42,Y,N,0.75,1,0.666666667,14,Breakfast,7,NA
1,3,18,11,M,1,1,4,1,1,0,1,1,1,1,0,5,-,-,-,18,8,3,333,42,Y,N,0.75,1,0.666666667,15,Breakfast,4,NA
1,3,18,11,M,1,1,4,1,1,0,1,1,1,1,0,5,-,-,-,17,5,2,333,42,Y,N,0.75,1,0.666666667,16,Breakfast,2,NA
1,3,18,11,M,1,1,4,1,1,0,1,1,1,1,0,5,-,-,-,17,6,2,333,42,Y,N,0.75,1,0.666666667,17,Breakfast,2,NA
1,3,18,11,M,1,1,4,1,1,0,1,1,1,1,0,0,-,-,-,25,15,5,333,42,Y,N,0.75,1,0.666666667,18,Breakfast,2,NA
1,3,18,11,M,1,1,4,1,1,0,1,1,1,1,0,0,-,-,-,20,0,0,333,42,Y,N,0.75,1,0.666666667,19,Breakfast,2,NA
1,3,18,11,M,1,1,4,1,1,0,1,1,1,1,0,0,-,-,-,20,0,0,333,42,Y,N,0.75,1,0.666666667,20,Breakfast,2,NA
1,3,25,11,F,1,0,7,0,0,0,0,0,0,0,0,5,1,21,29,7,41,14,260,43,Y,Y,0,0,0,1,Breakfast,32,31
1,3,25,11,F,1,0,7,0,0,0,0,0,0,0,0,15,17,4,19,0,40,14,260,43,Y,Y,0,0,0,2,Breakfast,8,17
1,3,25,11,F,1,0,7,0,0,0,0,0,0,0,0,7,0,45,32,0,55,19,260,43,Y,Y,0,0,0,3,Breakfast,7,9
1,3,25,11,F,1,0,7,0,0,0,0,0,0,0,0,16,10,3,27,14,67,23,260,43,Y,Y,0,0,0,4,Breakfast,6,14
1,3,25,11,F,1,0,7,0,0,0,0,0,0,0,0,15,0,15,28,13,67,23,260,43,Y,Y,0,0,0,5,Breakfast,7,6
1,3,25,11,F,1,0,7,0,0,0,0,0,0,0,0,5,0,56,36,0,61,21,260,43,Y,Y,0,0,0,6,Breakfast,6,6
1,3,25,11,F,1,0,7,0,0,0,0,0,0,0,0,20,11,0,20,9,58,20,260,43,Y,Y,0,0,0,7,Breakfast,4,18
1,3,25,11,F,1,0,7,0,0,0,0,0,0,0,0,17,18,0,23,5,57,20,260,43,Y,Y,0,0,0,8,Breakfast,4,11
1,3,25,11,F,1,0,7,0,0,0,0,0,0,0,0,19,13,0,20,7,55,19,260,43,Y,Y,0,0,0,9,Breakfast,5,11
1,3,25,11,F,1,0,7,0,0,0,0,0,0,0,0,17,10,0,15,5,35,12,260,43,Y,Y,0,0,0,10,Breakfast,10,8
1,3,25,11,F,1,0,7,0,0,0,0,0,0,0,0,17,-,-,-,14,32,11,260,43,Y,N,0,0,0,11,Breakfast,8,NA
1,3,25,11,F,1,0,7,0,0,0,0,0,0,0,0,0,-,-,-,26,16,6,260,43,Y,N,0,0,0,12,Breakfast,14,NA
1,3,25,11,F,1,0,7,0,0,0,0,0,0,0,0,1,-,-,-,24,13,5,260,43,Y,N,0,0,0,13,Breakfast,4,NA
1,3,25,11,F,1,0,7,0,0,0,0,0,0,0,0,2,-,-,-,23,15,5,260,43,Y,N,0,0,0,14,Breakfast,5,NA
1,3,25,11,F,1,0,7,0,0,0,0,0,0,0,0,3,-,-,-,20,8,3,260,43,Y,N,0,0,0,15,Breakfast,4,NA
1,3,25,11,F,1,0,7,0,0,0,0,0,0,0,0,0,-,-,-,22,5,2,260,43,Y,N,0,0,0,16,Breakfast,3,NA
1,3,25,11,F,1,0,7,0,0,0,0,0,0,0,0,1,-,-,-,21,6,2,260,43,Y,N,0,0,0,17,Breakfast,4,NA
1,3,25,11,F,1,0,7,0,0,0,0,0,0,0,0,15,-,-,-,10,15,5,260,43,Y,N,0,0,0,18,Breakfast,4,NA
1,3,25,11,F,1,0,7,0,0,0,0,0,0,0,0,0,-,-,-,20,0,0,260,43,Y,N,0,0,0,19,Breakfast,2,NA
1,3,25,11,F,1,0,7,0,0,0,0,0,0,0,0,0,-,-,-,20,0,0,260,43,Y,N,0,0,0,20,Breakfast,3,NA
1,3,33,11,F,1,1,4,0,1,0,1,1,1,1,1,7,2,12,27,13,41,14,315,44,Y,Y,0.75,1,0.666666667,1,Breakfast,16,32
1,3,33,11,F,1,1,4,0,1,0,1,1,1,1,1,0,6,60,34,0,40,14,315,44,Y,Y,0.75,1,0.666666667,2,Breakfast,13,19
1,3,33,11,F,1,1,4,0,1,0,1,1,1,1,1,12,8,6,27,13,55,19,315,44,Y,Y,0.75,1,0.666666667,3,Breakfast,7,17
1,3,33,11,F,1,1,4,0,1,0,1,1,1,1,1,13,0,36,30,0,67,23,315,44,Y,Y,0.75,1,0.666666667,4,Breakfast,8,8
1,3,33,11,F,1,1,4,0,1,0,1,1,1,1,1,15,2,9,28,17,67,23,315,44,Y,Y,0.75,1,0.666666667,5,Breakfast,4,9
1,3,33,11,F,1,1,4,0,1,0,1,1,1,1,1,17,8,0,24,16,61,21,315,44,Y,Y,0.75,1,0.666666667,6,Breakfast,6,9
1,3,33,11,F,1,1,4,0,1,0,1,1,1,1,1,0,0,60,40,0,58,20,315,44,Y,Y,0.75,1,0.666666667,7,Breakfast,4,11
1,3,33,11,F,1,1,4,0,1,0,1,1,1,1,1,0,0,96,40,0,57,20,315,44,Y,Y,0.75,1,0.666666667,8,Breakfast,4,5
1,3,33,11,F,1,1,4,0,1,0,1,1,1,1,1,0,0,108,39,0,55,19,315,44,Y,Y,0.75,1,0.666666667,9,Breakfast,3,5
1,3,33,11,F,1,1,4,0,1,0,1,1,1,1,1,0,0,15,32,17,35,12,315,44,Y,Y,0.75,1,0.666666667,10,Breakfast,4,7
1,3,33,11,F,1,1,4,0,1,0,1,1,1,1,1,0,-,-,-,31,32,11,315,44,Y,N,0.75,1,0.666666667,11,Breakfast,13,NA
1,3,33,11,F,1,1,4,0,1,0,1,1,1,1,1,0,-,-,-,26,16,6,315,44,Y,N,0.75,1,0.666666667,12,Breakfast,4,NA
1,3,33,11,F,1,1,4,0,1,0,1,1,1,1,1,0,-,-,-,25,13,5,315,44,Y,N,0.75,1,0.666666667,13,Breakfast,3,NA
1,3,33,11,F,1,1,4,0,1,0,1,1,1,1,1,0,-,-,-,25,15,5,315,44,Y,N,0.75,1,0.666666667,14,Breakfast,4,NA
1,3,33,11,F,1,1,4,0,1,0,1,1,1,1,1,0,-,-,-,23,8,3,315,44,Y,N,0.75,1,0.666666667,15,Breakfast,4,NA
1,3,33,11,F,1,1,4,0,1,0,1,1,1,1,1,0,-,-,-,22,5,2,315,44,Y,N,0.75,1,0.666666667,16,Breakfast,3,NA
1,3,33,11,F,1,1,4,0,1,0,1,1,1,1,1,0,-,-,-,22,6,2,315,44,Y,N,0.75,1,0.666666667,17,Breakfast,3,NA
1,3,33,11,F,1,1,4,0,1,0,1,1,1,1,1,0,-,-,-,25,15,5,315,44,Y,N,0.75,1,0.666666667,18,Breakfast,3,NA
1,3,33,11,F,1,1,4,0,1,0,1,1,1,1,1,0,-,-,-,20,0,0,315,44,Y,N,0.75,1,0.666666667,19,Breakfast,3,NA
1,3,33,11,F,1,1,4,0,1,0,1,1,1,1,1,0,-,-,-,20,0,0,315,44,Y,N,0.75,1,0.666666667,20,Breakfast,3,NA
1,3,24,12,M,0,0,7,1,0,1,1,1,1,1,0,10,0,16,20,4,29,10,249,45,Y,Y,0.75,1,0.666666667,1,Breakfast,34,34
1,3,24,12,M,0,0,7,1,0,1,1,1,1,1,0,8,10,22,20,0,23,8,249,45,Y,Y,0.75,1,0.666666667,2,Breakfast,28,33
1,3,24,12,M,0,0,7,1,0,1,1,1,1,1,0,0,24,6,34,4,41,14,249,45,Y,Y,0.75,1,0.666666667,3,Breakfast,21,49
1,3,24,12,M,0,0,7,1,0,1,1,1,1,1,0,15,25,60,26,0,59,21,249,45,Y,Y,0.75,1,0.666666667,4,Breakfast,5,36
1,3,24,12,M,0,0,7,1,0,1,1,1,1,1,0,20,11,54,21,0,60,21,249,45,Y,Y,0.75,1,0.666666667,5,Breakfast,21,26
1,3,24,12,M,0,0,7,1,0,1,1,1,1,1,0,15,1,38,20,0,43,15,249,45,Y,Y,0.75,1,0.666666667,6,Breakfast,33,41
1,3,24,12,M,0,0,7,1,0,1,1,1,1,1,0,20,0,43,13,0,36,13,249,45,Y,Y,0.75,1,0.666666667,7,Breakfast,11,5
1,3,24,12,M,0,0,7,1,0,1,1,1,1,1,0,0,0,6,28,22,23,8,249,45,Y,Y,0.75,1,0.666666667,8,Breakfast,2,4
1,3,24,12,M,0,0,7,1,0,1,1,1,1,1,0,0,0,44,22,0,6,2,249,45,Y,Y,0.75,1,0.666666667,9,Breakfast,8,4
1,3,24,12,M,0,0,7,1,0,1,1,1,1,1,0,20,0,54,15,0,43,15,249,45,Y,Y,0.75,1,0.666666667,10,Breakfast,5,16
1,3,24,12,M,0,0,7,1,0,1,1,1,1,1,0,10,-,-,-,19,26,9,249,45,Y,N,0.75,1,0.666666667,11,Breakfast,8,NA
1,3,24,12,M,0,0,7,1,0,1,1,1,1,1,0,20,-,-,-,9,26,9,249,45,Y,N,0.75,1,0.666666667,12,Breakfast,8,NA
1,3,24,12,M,0,0,7,1,0,1,1,1,1,1,0,5,-,-,-,26,30,11,249,45,Y,N,0.75,1,0.666666667,13,Breakfast,3,NA
1,3,24,12,M,0,0,7,1,0,1,1,1,1,1,0,2,-,-,-,27,25,9,249,45,Y,N,0.75,1,0.666666667,14,Breakfast,5,NA
1,3,24,12,M,0,0,7,1,0,1,1,1,1,1,0,2,-,-,-,24,16,6,249,45,Y,N,0.75,1,0.666666667,15,Breakfast,6,NA
1,3,24,12,M,0,0,7,1,0,1,1,1,1,1,0,5,-,-,-,22,21,7,249,45,Y,N,0.75,1,0.666666667,16,Breakfast,5,NA
1,3,24,12,M,0,0,7,1,0,1,1,1,1,1,0,5,-,-,-,20,15,5,249,45,Y,N,0.75,1,0.666666667,17,Breakfast,4,NA
1,3,24,12,M,0,0,7,1,0,1,1,1,1,1,0,0,-,-,-,27,19,7,249,45,Y,N,0.75,1,0.666666667,18,Breakfast,3,NA
1,3,24,12,M,0,0,7,1,0,1,1,1,1,1,0,0,-,-,-,23,8,3,249,45,Y,N,0.75,1,0.666666667,19,Breakfast,2,NA
1,3,24,12,M,0,0,7,1,0,1,1,1,1,1,0,5,-,-,-,22,20,7,249,45,Y,N,0.75,1,0.666666667,20,Breakfast,6,NA
1,3,22,12,F,1,1,1,0,0,1,0,0,1,0,1,5,4,6,25,15,29,10,216,46,Y,Y,0.375,0,0.5,1,Breakfast,18,54
1,3,22,12,F,1,1,1,0,0,1,0,0,1,0,1,5,23,14,23,0,23,8,216,46,Y,Y,0.375,0,0.5,2,Breakfast,12,46
1,3,22,12,F,1,1,1,0,0,1,0,0,1,0,1,10,10,24,24,0,41,14,216,46,Y,Y,0.375,0,0.5,3,Breakfast,35,15
1,3,22,12,F,1,1,1,0,0,1,0,0,1,0,1,20,11,46,21,0,59,21,216,46,Y,Y,0.375,0,0.5,4,Breakfast,13,29
1,3,22,12,F,1,1,1,0,0,1,0,0,1,0,1,10,25,33,31,0,60,21,216,46,Y,Y,0.375,0,0.5,5,Breakfast,7,23
1,3,22,12,F,1,1,1,0,0,1,0,0,1,0,1,20,11,60,15,0,43,15,216,46,Y,Y,0.375,0,0.5,6,Breakfast,6,24
1,3,22,12,F,1,1,1,0,0,1,0,0,1,0,1,3,29,9,30,0,36,13,216,46,Y,Y,0.375,0,0.5,7,Breakfast,4,28
1,3,22,12,F,1,1,1,0,0,1,0,0,1,0,1,5,7,4,23,12,23,8,216,46,Y,Y,0.375,0,0.5,8,Breakfast,26,18
1,3,22,12,F,1,1,1,0,0,1,0,0,1,0,1,5,0,14,17,3,6,2,216,46,Y,Y,0.375,0,0.5,9,Breakfast,4,13
1,3,22,12,F,1,1,1,0,0,1,0,0,1,0,1,3,17,12,32,3,43,15,216,46,Y,Y,0.375,0,0.5,10,Breakfast,10,40
1,3,22,12,F,1,1,1,0,0,1,0,0,1,0,1,5,-,-,-,24,26,9,216,46,Y,N,0.375,0,0.5,11,Breakfast,9,NA
1,3,22,12,F,1,1,1,0,0,1,0,0,1,0,1,5,-,-,-,24,26,9,216,46,Y,N,0.375,0,0.5,12,Breakfast,26,NA
1,3,22,12,F,1,1,1,0,0,1,0,0,1,0,1,10,-,-,-,21,30,11,216,46,Y,N,0.375,0,0.5,13,Breakfast,4,NA
1,3,22,12,F,1,1,1,0,0,1,0,0,1,0,1,20,-,-,-,9,25,9,216,46,Y,N,0.375,0,0.5,14,Breakfast,4,NA
1,3,22,12,F,1,1,1,0,0,1,0,0,1,0,1,8,-,-,-,18,16,6,216,46,Y,N,0.375,0,0.5,15,Breakfast,8,NA
1,3,22,12,F,1,1,1,0,0,1,0,0,1,0,1,8,-,-,-,19,21,7,216,46,Y,N,0.375,0,0.5,16,Breakfast,5,NA
1,3,22,12,F,1,1,1,0,0,1,0,0,1,0,1,10,-,-,-,15,15,5,216,46,Y,N,0.375,0,0.5,17,Breakfast,6,NA
1,3,22,12,F,1,1,1,0,0,1,0,0,1,0,1,8,-,-,-,19,19,7,216,46,Y,N,0.375,0,0.5,18,Breakfast,4,NA
1,3,22,12,F,1,1,1,0,0,1,0,0,1,0,1,8,-,-,-,15,8,3,216,46,Y,N,0.375,0,0.5,19,Breakfast,12,NA
1,3,22,12,F,1,1,1,0,0,1,0,0,1,0,1,8,-,-,-,19,20,7,216,46,Y,N,0.375,0,0.5,20,Breakfast,7,NA
1,3,28,12,F,1,1,7,1,1,0,0,0,0,1,0,4,2,3,26,21,29,10,288,47,Y,Y,0.375,0,0.5,1,Breakfast,24,29
1,3,28,12,F,1,1,7,1,1,0,0,0,0,1,0,10,7,30,18,0,23,8,288,47,Y,Y,0.375,0,0.5,2,Breakfast,12,31
1,3,28,12,F,1,1,7,1,1,0,0,0,0,1,0,16,14,24,18,0,41,14,288,47,Y,Y,0.375,0,0.5,3,Breakfast,7,34
1,3,28,12,F,1,1,7,1,1,0,0,0,0,1,0,20,20,44,21,0,59,21,288,47,Y,Y,0.375,0,0.5,4,Breakfast,6,54
1,3,28,12,F,1,1,7,1,1,0,0,0,0,1,0,20,20,30,21,0,60,21,288,47,Y,Y,0.375,0,0.5,5,Breakfast,5,22
1,3,28,12,F,1,1,7,1,1,0,0,0,0,1,0,1,34,6,34,0,43,15,288,47,Y,Y,0.375,0,0.5,6,Breakfast,6,52
1,3,28,12,F,1,1,7,1,1,0,0,0,0,1,0,1,31,3,32,0,36,13,288,47,Y,Y,0.375,0,0.5,7,Breakfast,4,20
1,3,28,12,F,1,1,7,1,1,0,0,0,0,1,0,0,22,6,28,0,23,8,288,47,Y,Y,0.375,0,0.5,8,Breakfast,4,14
1,3,28,12,F,1,1,7,1,1,0,0,0,0,1,0,1,19,20,21,0,6,2,288,47,Y,Y,0.375,0,0.5,9,Breakfast,4,19
1,3,28,12,F,1,1,7,1,1,0,0,0,0,1,0,12,21,20,23,0,43,15,288,47,Y,Y,0.375,0,0.5,10,Breakfast,7,21
1,3,28,12,F,1,1,7,1,1,0,0,0,0,1,0,1,-,-,-,28,26,9,288,47,Y,N,0.375,0,0.5,11,Breakfast,44,NA
1,3,28,12,F,1,1,7,1,1,0,0,0,0,1,0,1,-,-,-,28,26,9,288,47,Y,N,0.375,0,0.5,12,Breakfast,34,NA
1,3,28,12,F,1,1,7,1,1,0,0,0,0,1,0,0,-,-,-,31,30,11,288,47,Y,N,0.375,0,0.5,13,Breakfast,7,NA
1,3,28,12,F,1,1,7,1,1,0,0,0,0,1,0,0,-,-,-,29,25,9,288,47,Y,N,0.375,0,0.5,14,Breakfast,5,NA
1,3,28,12,F,1,1,7,1,1,0,0,0,0,1,0,1,-,-,-,25,16,6,288,47,Y,N,0.375,0,0.5,15,Breakfast,4,NA
1,3,28,12,F,1,1,7,1,1,0,0,0,0,1,0,0,-,-,-,27,21,7,288,47,Y,N,0.375,0,0.5,16,Breakfast,5,NA
1,3,28,12,F,1,1,7,1,1,0,0,0,0,1,0,0,-,-,-,25,15,5,288,47,Y,N,0.375,0,0.5,17,Breakfast,4,NA
1,3,28,12,F,1,1,7,1,1,0,0,0,0,1,0,1,-,-,-,26,19,7,288,47,Y,N,0.375,0,0.5,18,Breakfast,4,NA
1,3,28,12,F,1,1,7,1,1,0,0,0,0,1,0,0,-,-,-,23,8,3,288,47,Y,N,0.375,0,0.5,19,Breakfast,5,NA
1,3,28,12,F,1,1,7,1,1,0,0,0,0,1,0,2,-,-,-,25,20,7,288,47,Y,N,0.375,0,0.5,20,Breakfast,4,NA
1,3,9,12,M,1,0,2,0,1,1,0,0,1,1,1,10,8,6,20,6,29,10,230,48,Y,Y,0.625,0,0.833333333,1,Breakfast,16,34
1,3,9,12,M,1,0,2,0,1,1,0,0,1,1,1,0,0,21,28,7,23,8,230,48,Y,Y,0.625,0,0.833333333,2,Breakfast,7,7
1,3,9,12,M,1,0,2,0,1,1,0,0,1,1,1,15,3,50,19,0,41,14,230,48,Y,Y,0.625,0,0.833333333,3,Breakfast,6,16
1,3,9,12,M,1,0,2,0,1,1,0,0,1,1,1,4,15,24,37,0,59,21,230,48,Y,Y,0.625,0,0.833333333,4,Breakfast,6,14
1,3,9,12,M,1,0,2,0,1,1,0,0,1,1,1,10,8,33,31,0,60,21,230,48,Y,Y,0.625,0,0.833333333,5,Breakfast,5,32
1,3,9,12,M,1,0,2,0,1,1,0,0,1,1,1,7,12,21,28,0,43,15,230,48,Y,Y,0.625,0,0.833333333,6,Breakfast,7,14
1,3,9,12,M,1,0,2,0,1,1,0,0,1,1,1,12,5,36,21,0,36,13,230,48,Y,Y,0.625,0,0.833333333,7,Breakfast,6,13
1,3,9,12,M,1,0,2,0,1,1,0,0,1,1,1,18,2,25,10,0,23,8,230,48,Y,Y,0.625,0,0.833333333,8,Breakfast,6,11
1,3,9,12,M,1,0,2,0,1,1,0,0,1,1,1,0,22,4,22,0,6,2,230,48,Y,Y,0.625,0,0.833333333,9,Breakfast,4,33
1,3,9,12,M,1,0,2,0,1,1,0,0,1,1,1,8,11,24,27,0,43,15,230,48,Y,Y,0.625,0,0.833333333,10,Breakfast,9,17
1,3,9,12,M,1,0,2,0,1,1,0,0,1,1,1,10,-,-,-,19,26,9,230,48,Y,N,0.625,0,0.833333333,11,Breakfast,21,NA
1,3,9,12,M,1,0,2,0,1,1,0,0,1,1,1,0,-,-,-,29,26,9,230,48,Y,N,0.625,0,0.833333333,12,Breakfast,6,NA
1,3,9,12,M,1,0,2,0,1,1,0,0,1,1,1,15,-,-,-,16,30,11,230,48,Y,N,0.625,0,0.833333333,13,Breakfast,7,NA
1,3,9,12,M,1,0,2,0,1,1,0,0,1,1,1,3,-,-,-,26,25,9,230,48,Y,N,0.625,0,0.833333333,14,Breakfast,3,NA
1,3,9,12,M,1,0,2,0,1,1,0,0,1,1,1,5,-,-,-,21,16,6,230,48,Y,N,0.625,0,0.833333333,15,Breakfast,2,NA
1,3,9,12,M,1,0,2,0,1,1,0,0,1,1,1,8,-,-,-,19,21,7,230,48,Y,N,0.625,0,0.833333333,16,Breakfast,3,NA
1,3,9,12,M,1,0,2,0,1,1,0,0,1,1,1,0,-,-,-,25,15,5,230,48,Y,N,0.625,0,0.833333333,17,Breakfast,2,NA
1,3,9,12,M,1,0,2,0,1,1,0,0,1,1,1,10,-,-,-,17,19,7,230,48,Y,N,0.625,0,0.833333333,18,Breakfast,5,NA
1,3,9,12,M,1,0,2,0,1,1,0,0,1,1,1,0,-,-,-,23,8,3,230,48,Y,N,0.625,0,0.833333333,19,Breakfast,1,NA
1,3,9,12,M,1,0,2,0,1,1,0,0,1,1,1,5,-,-,-,22,20,7,230,48,Y,N,0.625,0,0.833333333,20,Breakfast,3,NA
1,3,17,13,M,1,0,1,1,1,1,1,0,1,1,1,10,0,3,25,22,43,15,407,49,Y,Y,0.875,0.5,1,1,Breakfast,24,32
1,3,17,13,M,1,0,1,1,1,1,1,0,1,1,1,12,1,4,23,18,42,15,407,49,Y,Y,0.875,0.5,1,2,Breakfast,12,14
1,3,17,13,M,1,0,1,1,1,1,1,0,1,1,1,10,1,9,28,18,50,18,407,49,Y,Y,0.875,0.5,1,3,Breakfast,9,13
1,3,17,13,M,1,0,1,1,1,1,1,0,1,1,1,9,0,9,25,16,40,14,407,49,Y,Y,0.875,0.5,1,4,Breakfast,13,6
1,3,17,13,M,1,0,1,1,1,1,1,0,1,1,1,12,0,9,25,16,49,17,407,49,Y,Y,0.875,0.5,1,5,Breakfast,6,11
1,3,17,13,M,1,0,1,1,1,1,1,0,1,1,1,13,0,2,22,20,42,15,407,49,Y,Y,0.875,0.5,1,6,Breakfast,26,11
1,3,17,13,M,1,0,1,1,1,1,1,0,1,1,1,15,0,4,21,17,47,16,407,49,Y,Y,0.875,0.5,1,7,Breakfast,5,7
1,3,17,13,M,1,0,1,1,1,1,1,0,1,1,1,17,0,4,21,17,50,18,407,49,Y,Y,0.875,0.5,1,8,Breakfast,12,6
1,3,17,13,M,1,0,1,1,1,1,1,0,1,1,1,18,0,0,23,23,59,21,407,49,Y,Y,0.875,0.5,1,9,Breakfast,9,8
1,3,17,13,M,1,0,1,1,1,1,1,0,1,1,1,20,2,0,19,17,54,19,407,49,Y,Y,0.875,0.5,1,10,Breakfast,8,13
1,3,17,13,M,1,0,1,1,1,1,1,0,1,1,1,12,-,-,-,26,52,18,407,49,Y,N,0.875,0.5,1,11,Breakfast,30,NA
1,3,17,13,M,1,0,1,1,1,1,1,0,1,1,1,15,-,-,-,20,43,15,407,49,Y,N,0.875,0.5,1,12,Breakfast,13,NA
1,3,17,13,M,1,0,1,1,1,1,1,0,1,1,1,15,-,-,-,19,39,14,407,49,Y,N,0.875,0.5,1,13,Breakfast,4,NA
1,3,17,13,M,1,0,1,1,1,1,1,0,1,1,1,12,-,-,-,22,40,14,407,49,Y,N,0.875,0.5,1,14,Breakfast,3,NA
1,3,17,13,M,1,0,1,1,1,1,1,0,1,1,1,13,-,-,-,19,34,12,407,49,Y,N,0.875,0.5,1,15,Breakfast,3,NA
1,3,17,13,M,1,0,1,1,1,1,1,0,1,1,1,11,-,-,-,20,32,11,407,49,Y,N,0.875,0.5,1,16,Breakfast,4,NA
1,3,17,13,M,1,0,1,1,1,1,1,0,1,1,1,12,-,-,-,21,36,13,407,49,Y,N,0.875,0.5,1,17,Breakfast,6,NA
1,3,17,13,M,1,0,1,1,1,1,1,0,1,1,1,5,-,-,-,24,26,9,407,49,Y,N,0.875,0.5,1,18,Breakfast,3,NA
1,3,17,13,M,1,0,1,1,1,1,1,0,1,1,1,2,-,-,-,27,25,9,407,49,Y,N,0.875,0.5,1,19,Breakfast,4,NA
1,3,17,13,M,1,0,1,1,1,1,1,0,1,1,1,2,-,-,-,25,19,7,407,49,Y,N,0.875,0.5,1,20,Breakfast,3,NA
1,3,34,13,M,1,1,2,0,0,0,1,1,1,0,0,20,10,8,15,0,43,15,383,50,Y,Y,0.375,1,0.166666667,1,Breakfast,10,63
1,3,34,13,M,1,1,2,0,0,0,1,1,1,0,0,5,0,6,30,24,42,15,383,50,Y,Y,0.375,1,0.166666667,2,Breakfast,13,22
1,3,34,13,M,1,1,2,0,0,0,1,1,1,0,0,12,2,15,26,9,50,18,383,50,Y,Y,0.375,1,0.166666667,3,Breakfast,6,21
1,3,34,13,M,1,1,2,0,0,0,1,1,1,0,0,15,0,10,19,9,40,14,383,50,Y,Y,0.375,1,0.166666667,4,Breakfast,5,11
1,3,34,13,M,1,1,2,0,0,0,1,1,1,0,0,12,3,0,25,22,49,17,383,50,Y,Y,0.375,1,0.166666667,5,Breakfast,8,16
1,3,34,13,M,1,1,2,0,0,0,1,1,1,0,0,13,4,2,22,16,42,15,383,50,Y,Y,0.375,1,0.166666667,6,Breakfast,5,14
1,3,34,13,M,1,1,2,0,0,0,1,1,1,0,0,12,4,0,24,20,47,16,383,50,Y,Y,0.375,1,0.166666667,7,Breakfast,5,8
1,3,34,13,M,1,1,2,0,0,0,1,1,1,0,0,12,3,12,26,11,50,18,383,50,Y,Y,0.375,1,0.166666667,8,Breakfast,4,14
1,3,34,13,M,1,1,2,0,0,0,1,1,1,0,0,14,4,0,27,23,59,21,383,50,Y,Y,0.375,1,0.166666667,9,Breakfast,9,10
1,3,34,13,M,1,1,2,0,0,0,1,1,1,0,0,14,4,3,25,18,54,19,383,50,Y,Y,0.375,1,0.166666667,10,Breakfast,4,7
1,3,34,13,M,1,1,2,0,0,0,1,1,1,0,0,15,-,-,-,23,52,18,383,50,Y,N,0.375,1,0.166666667,11,Breakfast,860,NA
1,3,34,13,M,1,1,2,0,0,0,1,1,1,0,0,10,-,-,-,25,43,15,383,50,Y,N,0.375,1,0.166666667,12,Breakfast,23,NA
1,3,34,13,M,1,1,2,0,0,0,1,1,1,0,0,10,-,-,-,24,39,14,383,50,Y,N,0.375,1,0.166666667,13,Breakfast,3,NA
1,3,34,13,M,1,1,2,0,0,0,1,1,1,0,0,10,-,-,-,24,40,14,383,50,Y,N,0.375,1,0.166666667,14,Breakfast,6,NA
1,3,34,13,M,1,1,2,0,0,0,1,1,1,0,0,10,-,-,-,22,34,12,383,50,Y,N,0.375,1,0.166666667,15,Breakfast,4,NA
1,3,34,13,M,1,1,2,0,0,0,1,1,1,0,0,9,-,-,-,22,32,11,383,50,Y,N,0.375,1,0.166666667,16,Breakfast,4,NA
1,3,34,13,M,1,1,2,0,0,0,1,1,1,0,0,9,-,-,-,24,36,13,383,50,Y,N,0.375,1,0.166666667,17,Breakfast,4,NA
1,3,34,13,M,1,1,2,0,0,0,1,1,1,0,0,10,-,-,-,19,26,9,383,50,Y,N,0.375,1,0.166666667,18,Breakfast,3,NA
1,3,34,13,M,1,1,2,0,0,0,1,1,1,0,0,8,-,-,-,21,25,9,383,50,Y,N,0.375,1,0.166666667,19,Breakfast,4,NA
1,3,34,13,M,1,1,2,0,0,0,1,1,1,0,0,0,-,-,-,27,19,7,383,50,Y,N,0.375,1,0.166666667,20,Breakfast,3,NA
1,3,16,13,F,1,1,2,1,1,0,0,1,1,0,0,5,4,15,30,11,43,15,343,51,Y,Y,0.5,0.5,0.5,1,Breakfast,91,36
1,3,16,13,F,1,1,2,1,1,0,0,1,1,0,0,15,5,20,20,0,42,15,343,51,Y,Y,0.5,0.5,0.5,2,Breakfast,7,16
1,3,16,13,F,1,1,2,1,1,0,0,1,1,0,0,19,10,0,19,9,50,18,343,51,Y,Y,0.5,0.5,0.5,3,Breakfast,7,11
1,3,16,13,F,1,1,2,1,1,0,0,1,1,0,0,7,8,0,27,19,40,14,343,51,Y,Y,0.5,0.5,0.5,4,Breakfast,6,16
1,3,16,13,F,1,1,2,1,1,0,0,1,1,0,0,17,3,0,20,17,49,17,343,51,Y,Y,0.5,0.5,0.5,5,Breakfast,4,14
1,3,16,13,F,1,1,2,1,1,0,0,1,1,0,0,9,3,6,26,17,42,15,343,51,Y,Y,0.5,0.5,0.5,6,Breakfast,5,14
1,3,16,13,F,1,1,2,1,1,0,0,1,1,0,0,15,3,0,21,18,47,16,343,51,Y,Y,0.5,0.5,0.5,7,Breakfast,7,11
1,3,16,13,F,1,1,2,1,1,0,0,1,1,0,0,13,6,0,25,19,50,18,343,51,Y,Y,0.5,0.5,0.5,8,Breakfast,8,12
1,3,16,13,F,1,1,2,1,1,0,0,1,1,0,0,20,0,0,21,21,59,21,343,51,Y,Y,0.5,0.5,0.5,9,Breakfast,3,13
1,3,16,13,F,1,1,2,1,1,0,0,1,1,0,0,15,1,0,24,23,54,19,343,51,Y,Y,0.5,0.5,0.5,10,Breakfast,4,6
1,3,16,13,F,1,1,2,1,1,0,0,1,1,0,0,20,-,-,-,18,52,18,343,51,Y,N,0.5,0.5,0.5,11,Breakfast,9,NA
1,3,16,13,F,1,1,2,1,1,0,0,1,1,0,0,13,-,-,-,22,43,15,343,51,Y,N,0.5,0.5,0.5,12,Breakfast,18,NA
1,3,16,13,F,1,1,2,1,1,0,0,1,1,0,0,9,-,-,-,25,39,14,343,51,Y,N,0.5,0.5,0.5,13,Breakfast,12,NA
1,3,16,13,F,1,1,2,1,1,0,0,1,1,0,0,15,-,-,-,19,40,14,343,51,Y,N,0.5,0.5,0.5,14,Breakfast,9,NA
1,3,16,13,F,1,1,2,1,1,0,0,1,1,0,0,9,-,-,-,23,34,12,343,51,Y,N,0.5,0.5,0.5,15,Breakfast,4,NA
1,3,16,13,F,1,1,2,1,1,0,0,1,1,0,0,11,-,-,-,20,32,11,343,51,Y,N,0.5,0.5,0.5,16,Breakfast,7,NA
1,3,16,13,F,1,1,2,1,1,0,0,1,1,0,0,15,-,-,-,18,36,13,343,51,Y,N,0.5,0.5,0.5,17,Breakfast,5,NA
1,3,16,13,F,1,1,2,1,1,0,0,1,1,0,0,9,-,-,-,20,26,9,343,51,Y,N,0.5,0.5,0.5,18,Breakfast,5,NA
1,3,16,13,F,1,1,2,1,1,0,0,1,1,0,0,15,-,-,-,14,25,9,343,51,Y,N,0.5,0.5,0.5,19,Breakfast,6,NA
1,3,16,13,F,1,1,2,1,1,0,0,1,1,0,0,17,-,-,-,10,19,7,343,51,Y,N,0.5,0.5,0.5,20,Breakfast,10,NA
1,3,31,13,F,1,0,2,1,1,1,0,1,1,1,1,8,2,18,27,7,43,15,464,52,Y,Y,0.875,0.5,1,1,Breakfast,26,62
1,3,31,13,F,1,0,2,1,1,1,0,1,1,1,1,10,10,6,25,9,42,15,464,52,Y,Y,0.875,0.5,1,2,Breakfast,12,37
1,3,31,13,F,1,0,2,1,1,1,0,1,1,1,1,9,0,15,29,14,50,18,464,52,Y,Y,0.875,0.5,1,3,Breakfast,10,28
1,3,31,13,F,1,0,2,1,1,1,0,1,1,1,1,9,0,0,25,25,40,14,464,52,Y,Y,0.875,0.5,1,4,Breakfast,15,10
1,3,31,13,F,1,0,2,1,1,1,0,1,1,1,1,8,0,9,29,20,49,17,464,52,Y,Y,0.875,0.5,1,5,Breakfast,10,7
1,3,31,13,F,1,0,2,1,1,1,0,1,1,1,1,7,0,9,28,19,42,15,464,52,Y,Y,0.875,0.5,1,6,Breakfast,15,7
1,3,31,13,F,1,0,2,1,1,1,0,1,1,1,1,5,0,15,31,16,47,16,464,52,Y,Y,0.875,0.5,1,7,Breakfast,5,6
1,3,31,13,F,1,0,2,1,1,1,0,1,1,1,1,8,1,12,30,17,50,18,464,52,Y,Y,0.875,0.5,1,8,Breakfast,5,43
1,3,31,13,F,1,0,2,1,1,1,0,1,1,1,1,7,0,12,34,22,59,21,464,52,Y,Y,0.875,0.5,1,9,Breakfast,7,12
1,3,31,13,F,1,0,2,1,1,1,0,1,1,1,1,5,0,18,34,16,54,19,464,52,Y,Y,0.875,0.5,1,10,Breakfast,8,18
1,3,31,13,F,1,0,2,1,1,1,0,1,1,1,1,5,-,-,-,33,52,18,464,52,Y,N,0.875,0.5,1,11,Breakfast,47,NA
1,3,31,13,F,1,0,2,1,1,1,0,1,1,1,1,5,-,-,-,30,43,15,464,52,Y,N,0.875,0.5,1,12,Breakfast,24,NA
1,3,31,13,F,1,0,2,1,1,1,0,1,1,1,1,5,-,-,-,29,39,14,464,52,Y,N,0.875,0.5,1,13,Breakfast,9,NA
1,3,31,13,F,1,0,2,1,1,1,0,1,1,1,1,3,-,-,-,31,40,14,464,52,Y,N,0.875,0.5,1,14,Breakfast,4,NA
1,3,31,13,F,1,0,2,1,1,1,0,1,1,1,1,2,-,-,-,30,34,12,464,52,Y,N,0.875,0.5,1,15,Breakfast,4,NA
1,3,31,13,F,1,0,2,1,1,1,0,1,1,1,1,1,-,-,-,30,32,11,464,52,Y,N,0.875,0.5,1,16,Breakfast,3,NA
1,3,31,13,F,1,0,2,1,1,1,0,1,1,1,1,0,-,-,-,33,36,13,464,52,Y,N,0.875,0.5,1,17,Breakfast,4,NA
1,3,31,13,F,1,0,2,1,1,1,0,1,1,1,1,2,-,-,-,27,26,9,464,52,Y,N,0.875,0.5,1,18,Breakfast,3,NA
1,3,31,13,F,1,0,2,1,1,1,0,1,1,1,1,0,-,-,-,29,25,9,464,52,Y,N,0.875,0.5,1,19,Breakfast,3,NA
1,3,31,13,F,1,0,2,1,1,1,0,1,1,1,1,0,-,-,-,27,19,7,464,52,Y,N,0.875,0.5,1,20,Breakfast,2,NA
1,3,35,14,F,1,0,2,0,1,0,0,1,1,1,0,5,0,33,28,0,36,13,425,53,Y,Y,0.5,0.5,0.5,1,Breakfast,25,42
1,3,35,14,F,1,0,2,0,1,0,0,1,1,1,0,10,1,6,27,20,48,17,425,53,Y,Y,0.5,0.5,0.5,2,Breakfast,10,23
1,3,35,14,F,1,0,2,0,1,0,0,1,1,1,0,11,0,12,27,15,50,18,425,53,Y,Y,0.5,0.5,0.5,3,Breakfast,13,8
1,3,35,14,F,1,0,2,0,1,0,0,1,1,1,0,15,1,0,25,24,57,20,425,53,Y,Y,0.5,0.5,0.5,4,Breakfast,3,7
1,3,35,14,F,1,0,2,0,1,0,0,1,1,1,0,14,1,10,24,13,51,18,425,53,Y,Y,0.5,0.5,0.5,5,Breakfast,7,11
1,3,35,14,F,1,0,2,0,1,0,0,1,1,1,0,15,1,0,23,22,50,18,425,53,Y,Y,0.5,0.5,0.5,6,Breakfast,3,12
1,3,35,14,F,1,0,2,0,1,0,0,1,1,1,0,14,2,0,22,20,47,16,425,53,Y,Y,0.5,0.5,0.5,7,Breakfast,4,9
1,3,35,14,F,1,0,2,0,1,0,0,1,1,1,0,14,2,0,21,19,43,15,425,53,Y,Y,0.5,0.5,0.5,8,Breakfast,3,10
1,3,35,14,F,1,0,2,0,1,0,0,1,1,1,0,13,0,9,28,19,61,21,425,53,Y,Y,0.5,0.5,0.5,9,Breakfast,4,8
1,3,35,14,F,1,0,2,0,1,0,0,1,1,1,0,15,1,0,22,21,48,17,425,53,Y,Y,0.5,0.5,0.5,10,Breakfast,4,8
1,3,35,14,F,1,0,2,0,1,0,0,1,1,1,0,5,-,-,-,26,31,11,425,53,Y,N,0.5,0.5,0.5,11,Breakfast,35,NA
1,3,35,14,F,1,0,2,0,1,0,0,1,1,1,0,2,-,-,-,25,19,7,425,53,Y,N,0.5,0.5,0.5,12,Breakfast,7,NA
1,3,35,14,F,1,0,2,0,1,0,0,1,1,1,0,0,-,-,-,26,18,6,425,53,Y,N,0.5,0.5,0.5,13,Breakfast,3,NA
1,3,35,14,F,1,0,2,0,1,0,0,1,1,1,0,1,-,-,-,25,16,6,425,53,Y,N,0.5,0.5,0.5,14,Breakfast,8,NA
1,3,35,14,F,1,0,2,0,1,0,0,1,1,1,0,0,-,-,-,31,31,11,425,53,Y,N,0.5,0.5,0.5,15,Breakfast,3,NA
1,3,35,14,F,1,0,2,0,1,0,0,1,1,1,0,0,-,-,-,24,11,4,425,53,Y,N,0.5,0.5,0.5,16,Breakfast,3,NA
1,3,35,14,F,1,0,2,0,1,0,0,1,1,1,0,1,-,-,-,25,16,6,425,53,Y,N,0.5,0.5,0.5,17,Breakfast,3,NA
1,3,35,14,F,1,0,2,0,1,0,0,1,1,1,0,0,-,-,-,24,10,4,425,53,Y,N,0.5,0.5,0.5,18,Breakfast,7,NA
1,3,35,14,F,1,0,2,0,1,0,0,1,1,1,0,0,-,-,-,23,9,3,425,53,Y,N,0.5,0.5,0.5,19,Breakfast,3,NA
1,3,35,14,F,1,0,2,0,1,0,0,1,1,1,0,1,-,-,-,23,11,4,425,53,Y,N,0.5,0.5,0.5,20,Breakfast,3,NA
1,3,36,14,M,1,1,7,1,0,1,0,0,1,1,1,10,7,0,23,16,36,13,343,54,Y,Y,0.625,0,0.833333333,1,Breakfast,12,49
1,3,36,14,M,1,1,7,1,0,1,0,0,1,1,1,15,0,2,22,20,48,17,343,54,Y,Y,0.625,0,0.833333333,2,Breakfast,10,12
1,3,36,14,M,1,1,7,1,0,1,0,0,1,1,1,15,0,0,23,23,50,18,343,54,Y,Y,0.625,0,0.833333333,3,Breakfast,4,9
1,3,36,14,M,1,1,7,1,0,1,0,0,1,1,1,15,0,0,25,25,57,20,343,54,Y,Y,0.625,0,0.833333333,4,Breakfast,5,8
1,3,36,14,M,1,1,7,1,0,1,0,0,1,1,1,15,2,12,23,9,51,18,343,54,Y,Y,0.625,0,0.833333333,5,Breakfast,8,14
1,3,36,14,M,1,1,7,1,0,1,0,0,1,1,1,15,1,0,23,22,50,18,343,54,Y,Y,0.625,0,0.833333333,6,Breakfast,5,8
1,3,36,14,M,1,1,7,1,0,1,0,0,1,1,1,15,1,0,21,20,47,16,343,54,Y,Y,0.625,0,0.833333333,7,Breakfast,4,6
1,3,36,14,M,1,1,7,1,0,1,0,0,1,1,1,15,3,0,20,17,43,15,343,54,Y,Y,0.625,0,0.833333333,8,Breakfast,4,20
1,3,36,14,M,1,1,7,1,0,1,0,0,1,1,1,15,0,3,26,23,61,21,343,54,Y,Y,0.625,0,0.833333333,9,Breakfast,4,8
1,3,36,14,M,1,1,7,1,0,1,0,0,1,1,1,20,5,0,17,12,48,17,343,54,Y,Y,0.625,0,0.833333333,10,Breakfast,3,21
1,3,36,14,M,1,1,7,1,0,1,0,0,1,1,1,15,-,-,-,16,31,11,343,54,Y,N,0.625,0,0.833333333,11,Breakfast,15,NA
1,3,36,14,M,1,1,7,1,0,1,0,0,1,1,1,15,-,-,-,12,19,7,343,54,Y,N,0.625,0,0.833333333,12,Breakfast,10,NA
1,3,36,14,M,1,1,7,1,0,1,0,0,1,1,1,12,-,-,-,14,18,6,343,54,Y,N,0.625,0,0.833333333,13,Breakfast,7,NA
1,3,36,14,M,1,1,7,1,0,1,0,0,1,1,1,12,-,-,-,14,16,6,343,54,Y,N,0.625,0,0.833333333,14,Breakfast,5,NA
1,3,36,14,M,1,1,7,1,0,1,0,0,1,1,1,10,-,-,-,21,31,11,343,54,Y,N,0.625,0,0.833333333,15,Breakfast,8,NA
1,3,36,14,M,1,1,7,1,0,1,0,0,1,1,1,10,-,-,-,14,11,4,343,54,Y,N,0.625,0,0.833333333,16,Breakfast,3,NA
1,3,36,14,M,1,1,7,1,0,1,0,0,1,1,1,10,-,-,-,16,16,6,343,54,Y,N,0.625,0,0.833333333,17,Breakfast,4,NA
1,3,36,14,M,1,1,7,1,0,1,0,0,1,1,1,10,-,-,-,14,10,4,343,54,Y,N,0.625,0,0.833333333,18,Breakfast,4,NA
1,3,36,14,M,1,1,7,1,0,1,0,0,1,1,1,6,-,-,-,17,9,3,343,54,Y,N,0.625,0,0.833333333,19,Breakfast,5,NA
1,3,36,14,M,1,1,7,1,0,1,0,0,1,1,1,6,-,-,-,18,11,4,343,54,Y,N,0.625,0,0.833333333,20,Breakfast,3,NA
1,3,20,14,F,1,1,1,0,0,0,1,0,1,1,1,10,5,2,23,16,36,13,373,55,Y,Y,0.5,0.5,0.5,1,Breakfast,113,72
1,3,20,14,F,1,1,1,0,0,0,1,0,1,1,1,12,3,0,25,22,48,17,373,55,Y,Y,0.5,0.5,0.5,2,Breakfast,26,75
1,3,20,14,F,1,1,1,0,0,0,1,0,1,1,1,12,4,0,26,22,50,18,373,55,Y,Y,0.5,0.5,0.5,3,Breakfast,9,14
1,3,20,14,F,1,1,1,0,0,0,1,0,1,1,1,15,2,0,25,23,57,20,373,55,Y,Y,0.5,0.5,0.5,4,Breakfast,4,16
1,3,20,14,F,1,1,1,0,0,0,1,0,1,1,1,8,16,12,30,2,51,18,373,55,Y,Y,0.5,0.5,0.5,5,Breakfast,10,18
1,3,20,14,F,1,1,1,0,0,0,1,0,1,1,1,6,0,12,32,20,50,18,373,55,Y,Y,0.5,0.5,0.5,6,Breakfast,6,6
1,3,20,14,F,1,1,1,0,0,0,1,0,1,1,1,5,1,15,31,15,47,16,373,55,Y,Y,0.5,0.5,0.5,7,Breakfast,6,13
1,3,20,14,F,1,1,1,0,0,0,1,0,1,1,1,2,0,15,33,18,43,15,373,55,Y,Y,0.5,0.5,0.5,8,Breakfast,4,5
1,3,20,14,F,1,1,1,0,0,0,1,0,1,1,1,20,6,0,21,15,61,21,373,55,Y,Y,0.5,0.5,0.5,9,Breakfast,6,13
1,3,20,14,F,1,1,1,0,0,0,1,0,1,1,1,0,2,32,37,3,48,17,373,55,Y,Y,0.5,0.5,0.5,10,Breakfast,4,18
1,3,20,14,F,1,1,1,0,0,0,1,0,1,1,1,10,-,-,-,21,31,11,373,55,Y,N,0.5,0.5,0.5,11,Breakfast,26,NA
1,3,20,14,F,1,1,1,0,0,0,1,0,1,1,1,0,-,-,-,27,19,7,373,55,Y,N,0.5,0.5,0.5,12,Breakfast,20,NA
1,3,20,14,F,1,1,1,0,0,0,1,0,1,1,1,5,-,-,-,21,18,6,373,55,Y,N,0.5,0.5,0.5,13,Breakfast,16,NA
1,3,20,14,F,1,1,1,0,0,0,1,0,1,1,1,0,-,-,-,26,16,6,373,55,Y,N,0.5,0.5,0.5,14,Breakfast,3,NA
1,3,20,14,F,1,1,1,0,0,0,1,0,1,1,1,20,-,-,-,11,31,11,373,55,Y,N,0.5,0.5,0.5,15,Breakfast,9,NA
1,3,20,14,F,1,1,1,0,0,0,1,0,1,1,1,1,-,-,-,23,11,4,373,55,Y,N,0.5,0.5,0.5,16,Breakfast,6,NA
1,3,20,14,F,1,1,1,0,0,0,1,0,1,1,1,4,-,-,-,22,16,6,373,55,Y,N,0.5,0.5,0.5,17,Breakfast,11,NA
1,3,20,14,F,1,1,1,0,0,0,1,0,1,1,1,0,-,-,-,24,10,4,373,55,Y,N,0.5,0.5,0.5,18,Breakfast,14,NA
1,3,20,14,F,1,1,1,0,0,0,1,0,1,1,1,2,-,-,-,21,9,3,373,55,Y,N,0.5,0.5,0.5,19,Breakfast,8,NA
1,3,20,14,F,1,1,1,0,0,0,1,0,1,1,1,3,-,-,-,21,11,4,373,55,Y,N,0.5,0.5,0.5,20,Breakfast,7,NA
1,3,32,14,M,1,1,3,1,1,1,1,0,1,1,1,11,1,2,22,19,36,13,444,56,Y,Y,0.875,0.5,1,1,Breakfast,50,29
1,3,32,14,M,1,1,3,1,1,1,1,0,1,1,1,11,1,6,26,19,48,17,444,56,Y,Y,0.875,0.5,1,2,Breakfast,64,24
1,3,32,14,M,1,1,3,1,1,1,1,0,1,1,1,12,1,3,26,22,50,18,444,56,Y,Y,0.875,0.5,1,3,Breakfast,31,12
1,3,32,14,M,1,1,3,1,1,1,1,0,1,1,1,12,0,9,28,19,57,20,444,56,Y,Y,0.875,0.5,1,4,Breakfast,3,7
1,3,32,14,M,1,1,3,1,1,1,1,0,1,1,1,14,1,10,24,13,51,18,444,56,Y,Y,0.875,0.5,1,5,Breakfast,4,10
1,3,32,14,M,1,1,3,1,1,1,1,0,1,1,1,14,2,0,24,22,50,18,444,56,Y,Y,0.875,0.5,1,6,Breakfast,9,8
1,3,32,14,M,1,1,3,1,1,1,1,0,1,1,1,13,2,2,23,19,47,16,444,56,Y,Y,0.875,0.5,1,7,Breakfast,4,7
1,3,32,14,M,1,1,3,1,1,1,1,0,1,1,1,12,1,2,23,20,43,15,444,56,Y,Y,0.875,0.5,1,8,Breakfast,7,8
1,3,32,14,M,1,1,3,1,1,1,1,0,1,1,1,13,0,6,28,22,61,21,444,56,Y,Y,0.875,0.5,1,9,Breakfast,4,8
1,3,32,14,M,1,1,3,1,1,1,1,0,1,1,1,13,2,4,24,18,48,17,444,56,Y,Y,0.875,0.5,1,10,Breakfast,5,10
1,3,32,14,M,1,1,3,1,1,1,1,0,1,1,1,1,-,-,-,30,31,11,444,56,Y,N,0.875,0.5,1,11,Breakfast,11,NA
1,3,32,14,M,1,1,3,1,1,1,1,0,1,1,1,2,-,-,-,25,19,7,444,56,Y,N,0.875,0.5,1,12,Breakfast,6,NA
1,3,32,14,M,1,1,3,1,1,1,1,0,1,1,1,1,-,-,-,25,18,6,444,56,Y,N,0.875,0.5,1,13,Breakfast,4,NA
1,3,32,14,M,1,1,3,1,1,1,1,0,1,1,1,3,-,-,-,23,16,6,444,56,Y,N,0.875,0.5,1,14,Breakfast,3,NA
1,3,32,14,M,1,1,3,1,1,1,1,0,1,1,1,1,-,-,-,30,31,11,444,56,Y,N,0.875,0.5,1,15,Breakfast,3,NA
1,3,32,14,M,1,1,3,1,1,1,1,0,1,1,1,0,-,-,-,24,11,4,444,56,Y,N,0.875,0.5,1,16,Breakfast,5,NA
1,3,32,14,M,1,1,3,1,1,1,1,0,1,1,1,1,-,-,-,25,16,6,444,56,Y,N,0.875,0.5,1,17,Breakfast,3,NA
1,3,32,14,M,1,1,3,1,1,1,1,0,1,1,1,0,-,-,-,24,10,4,444,56,Y,N,0.875,0.5,1,18,Breakfast,4,NA
1,3,32,14,M,1,1,3,1,1,1,1,0,1,1,1,1,-,-,-,22,9,3,444,56,Y,N,0.875,0.5,1,19,Breakfast,3,NA
1,3,32,14,M,1,1,3,1,1,1,1,0,1,1,1,1,-,-,-,23,11,4,444,56,Y,N,0.875,0.5,1,20,Breakfast,4,NA
0,4,28,15,F,0,1,8,0,1,0,0,0,0,1,0,20,13,0,15,2,43,15,358,57,Y,Y,0.25,0,0.333333333,1,No Breakfast,38,39
0,4,28,15,F,0,1,8,0,1,0,0,0,0,1,0,5,0,24,27,3,35,12,358,57,Y,Y,0.25,0,0.333333333,2,No Breakfast,5,8
0,4,28,15,F,0,1,8,0,1,0,0,0,0,1,0,12,0,4,23,19,42,15,358,57,Y,Y,0.25,0,0.333333333,3,No Breakfast,5,7
0,4,28,15,F,0,1,8,0,1,0,0,0,0,1,0,14,2,2,21,17,44,15,358,57,Y,Y,0.25,0,0.333333333,4,No Breakfast,4,6
0,4,28,15,F,0,1,8,0,1,0,0,0,0,1,0,11,0,0,25,25,47,16,358,57,Y,Y,0.25,0,0.333333333,5,No Breakfast,3,7
0,4,28,15,F,0,1,8,0,1,0,0,0,0,1,0,10,0,0,24,24,41,14,358,57,Y,Y,0.25,0,0.333333333,6,No Breakfast,3,7
0,4,28,15,F,0,1,8,0,1,0,0,0,0,1,0,12,0,0,24,24,45,16,358,57,Y,Y,0.25,0,0.333333333,7,No Breakfast,3,7
0,4,28,15,F,0,1,8,0,1,0,0,0,0,1,0,15,0,0,21,21,47,16,358,57,Y,Y,0.25,0,0.333333333,8,No Breakfast,3,6
0,4,28,15,F,0,1,8,0,1,0,0,0,0,1,0,16,0,0,21,21,48,17,358,57,Y,Y,0.25,0,0.333333333,9,No Breakfast,3,7
0,4,28,15,F,0,1,8,0,1,0,0,0,0,1,0,12,0,0,25,25,48,17,358,57,Y,Y,0.25,0,0.333333333,10,No Breakfast,5,7
0,4,28,15,F,0,1,8,0,1,0,0,0,0,1,0,12,-,-,-,23,42,15,358,57,Y,N,0.25,0,0.333333333,11,No Breakfast,10,NA
0,4,28,15,F,0,1,8,0,1,0,0,0,0,1,0,12,-,-,-,21,36,13,358,57,Y,N,0.25,0,0.333333333,12,No Breakfast,9,NA
0,4,28,15,F,0,1,8,0,1,0,0,0,0,1,0,11,-,-,-,20,30,11,358,57,Y,N,0.25,0,0.333333333,13,No Breakfast,7,NA
0,4,28,15,F,0,1,8,0,1,0,0,0,0,1,0,13,-,-,-,19,34,12,358,57,Y,N,0.25,0,0.333333333,14,No Breakfast,5,NA
0,4,28,15,F,0,1,8,0,1,0,0,0,0,1,0,12,-,-,-,20,35,12,358,57,Y,N,0.25,0,0.333333333,15,No Breakfast,3,NA
0,4,28,15,F,0,1,8,0,1,0,0,0,0,1,0,11,-,-,-,19,29,10,358,57,Y,N,0.25,0,0.333333333,16,No Breakfast,3,NA
0,4,28,15,F,0,1,8,0,1,0,0,0,0,1,0,12,-,-,-,16,23,8,358,57,Y,N,0.25,0,0.333333333,17,No Breakfast,2,NA
0,4,28,15,F,0,1,8,0,1,0,0,0,0,1,0,18,-,-,-,12,27,10,358,57,Y,N,0.25,0,0.333333333,18,No Breakfast,3,NA
0,4,28,15,F,0,1,8,0,1,0,0,0,0,1,0,20,-,-,-,11,30,11,358,57,Y,N,0.25,0,0.333333333,19,No Breakfast,3,NA
0,4,28,15,F,0,1,8,0,1,0,0,0,0,1,0,9,-,-,-,16,14,5,358,57,Y,N,0.25,0,0.333333333,20,No Breakfast,6,NA
0,4,21,15,F,0,0,4,0,1,0,1,0,1,1,1,8,3,12,27,12,43,15,459,58,Y,Y,0.625,0.5,0.666666667,1,No Breakfast,13,28
0,4,21,15,F,0,0,4,0,1,0,1,0,1,1,1,10,9,0,22,13,35,12,459,58,Y,Y,0.625,0.5,0.666666667,2,No Breakfast,6,15
0,4,21,15,F,0,0,4,0,1,0,1,0,1,1,1,10,6,0,25,19,42,15,459,58,Y,Y,0.625,0.5,0.666666667,3,No Breakfast,4,18
0,4,21,15,F,0,0,4,0,1,0,1,0,1,1,1,10,0,6,25,19,44,15,459,58,Y,Y,0.625,0.5,0.666666667,4,No Breakfast,6,9
0,4,21,15,F,0,0,4,0,1,0,1,0,1,1,1,10,0,3,26,23,47,16,459,58,Y,Y,0.625,0.5,0.666666667,5,No Breakfast,4,8
0,4,21,15,F,0,0,4,0,1,0,1,0,1,1,1,12,0,0,22,22,41,14,459,58,Y,Y,0.625,0.5,0.666666667,6,No Breakfast,7,7
0,4,21,15,F,0,0,4,0,1,0,1,0,1,1,1,11,0,0,25,25,45,16,459,58,Y,Y,0.625,0.5,0.666666667,7,No Breakfast,5,7
0,4,21,15,F,0,0,4,0,1,0,1,0,1,1,1,11,0,3,25,22,47,16,459,58,Y,Y,0.625,0.5,0.666666667,8,No Breakfast,3,7
0,4,21,15,F,0,0,4,0,1,0,1,0,1,1,1,11,0,0,26,26,48,17,459,58,Y,Y,0.625,0.5,0.666666667,9,No Breakfast,3,7
0,4,21,15,F,0,0,4,0,1,0,1,0,1,1,1,11,0,0,26,26,48,17,459,58,Y,Y,0.625,0.5,0.666666667,10,No Breakfast,4,7
0,4,21,15,F,0,0,4,0,1,0,1,0,1,1,1,10,-,-,-,25,42,15,459,58,Y,N,0.625,0.5,0.666666667,11,No Breakfast,19,NA
0,4,21,15,F,0,0,4,0,1,0,1,0,1,1,1,10,-,-,-,23,36,13,459,58,Y,N,0.625,0.5,0.666666667,12,No Breakfast,7,NA
0,4,21,15,F,0,0,4,0,1,0,1,0,1,1,1,8,-,-,-,23,30,11,459,58,Y,N,0.625,0.5,0.666666667,13,No Breakfast,5,NA
0,4,21,15,F,0,0,4,0,1,0,1,0,1,1,1,6,-,-,-,26,34,12,459,58,Y,N,0.625,0.5,0.666666667,14,No Breakfast,5,NA
0,4,21,15,F,0,0,4,0,1,0,1,0,1,1,1,6,-,-,-,26,35,12,459,58,Y,N,0.625,0.5,0.666666667,15,No Breakfast,4,NA
0,4,21,15,F,0,0,4,0,1,0,1,0,1,1,1,6,-,-,-,24,29,10,459,58,Y,N,0.625,0.5,0.666666667,16,No Breakfast,4,NA
0,4,21,15,F,0,0,4,0,1,0,1,0,1,1,1,5,-,-,-,23,23,8,459,58,Y,N,0.625,0.5,0.666666667,17,No Breakfast,3,NA
0,4,21,15,F,0,0,4,0,1,0,1,0,1,1,1,4,-,-,-,26,27,10,459,58,Y,N,0.625,0.5,0.666666667,18,No Breakfast,3,NA
0,4,21,15,F,0,0,4,0,1,0,1,0,1,1,1,0,-,-,-,31,30,11,459,58,Y,N,0.625,0.5,0.666666667,19,No Breakfast,3,NA
0,4,21,15,F,0,0,4,0,1,0,1,0,1,1,1,0,-,-,-,25,14,5,459,58,Y,N,0.625,0.5,0.666666667,20,No Breakfast,3,NA
0,4,20,15,F,0,1,5,1,1,1,1,1,1,1,1,10,0,27,25,0,43,15,436,59,Y,Y,1,1,1,1,No Breakfast,16,39
0,4,20,15,F,0,1,5,1,1,1,1,1,1,1,1,10,1,4,22,17,35,12,436,59,Y,Y,1,1,1,2,No Breakfast,9,18
0,4,20,15,F,0,1,5,1,1,1,1,1,1,1,1,10,0,6,25,19,42,15,436,59,Y,Y,1,1,1,3,No Breakfast,6,10
0,4,20,15,F,0,1,5,1,1,1,1,1,1,1,1,10,0,0,25,25,44,15,436,59,Y,Y,1,1,1,4,No Breakfast,5,7
0,4,20,15,F,0,1,5,1,1,1,1,1,1,1,1,15,1,4,21,16,47,16,436,59,Y,Y,1,1,1,5,No Breakfast,4,14
0,4,20,15,F,0,1,5,1,1,1,1,1,1,1,1,10,1,0,24,23,41,14,436,59,Y,Y,1,1,1,6,No Breakfast,7,8
0,4,20,15,F,0,1,5,1,1,1,1,1,1,1,1,12,1,0,24,23,45,16,436,59,Y,Y,1,1,1,7,No Breakfast,6,11
0,4,20,15,F,0,1,5,1,1,1,1,1,1,1,1,10,0,3,26,23,47,16,436,59,Y,Y,1,1,1,8,No Breakfast,5,6
0,4,20,15,F,0,1,5,1,1,1,1,1,1,1,1,11,0,0,26,26,48,17,436,59,Y,Y,1,1,1,9,No Breakfast,5,10
0,4,20,15,F,0,1,5,1,1,1,1,1,1,1,1,11,0,0,26,26,48,17,436,59,Y,Y,1,1,1,10,No Breakfast,5,9
0,4,20,15,F,0,1,5,1,1,1,1,1,1,1,1,10,-,-,-,25,42,15,436,59,Y,N,1,1,1,11,No Breakfast,9,NA
0,4,20,15,F,0,1,5,1,1,1,1,1,1,1,1,5,-,-,-,28,36,13,436,59,Y,N,1,1,1,12,No Breakfast,5,NA
0,4,20,15,F,0,1,5,1,1,1,1,1,1,1,1,8,-,-,-,23,30,11,436,59,Y,N,1,1,1,13,No Breakfast,4,NA
0,4,20,15,F,0,1,5,1,1,1,1,1,1,1,1,10,-,-,-,22,34,12,436,59,Y,N,1,1,1,14,No Breakfast,2,NA
0,4,20,15,F,0,1,5,1,1,1,1,1,1,1,1,10,-,-,-,22,35,12,436,59,Y,N,1,1,1,15,No Breakfast,2,NA
0,4,20,15,F,0,1,5,1,1,1,1,1,1,1,1,5,-,-,-,25,29,10,436,59,Y,N,1,1,1,16,No Breakfast,2,NA
0,4,20,15,F,0,1,5,1,1,1,1,1,1,1,1,6,-,-,-,22,23,8,436,59,Y,N,1,1,1,17,No Breakfast,4,NA
0,4,20,15,F,0,1,5,1,1,1,1,1,1,1,1,5,-,-,-,25,27,10,436,59,Y,N,1,1,1,18,No Breakfast,4,NA
0,4,20,15,F,0,1,5,1,1,1,1,1,1,1,1,5,-,-,-,26,30,11,436,59,Y,N,1,1,1,19,No Breakfast,2,NA
0,4,20,15,F,0,1,5,1,1,1,1,1,1,1,1,5,-,-,-,20,14,5,436,59,Y,N,1,1,1,20,No Breakfast,4,NA
0,4,25,15,F,0,1,5,1,1,1,1,1,1,1,1,5,0,9,30,21,43,15,482,60,Y,Y,1,1,1,1,No Breakfast,35,74
0,4,25,15,F,0,1,5,1,1,1,1,1,1,1,1,10,2,4,22,16,35,12,482,60,Y,Y,1,1,1,2,No Breakfast,5,14
0,4,25,15,F,0,1,5,1,1,1,1,1,1,1,1,10,0,6,25,19,42,15,482,60,Y,Y,1,1,1,3,No Breakfast,8,6
0,4,25,15,F,0,1,5,1,1,1,1,1,1,1,1,10,1,0,25,24,44,15,482,60,Y,Y,1,1,1,4,No Breakfast,5,10
0,4,25,15,F,0,1,5,1,1,1,1,1,1,1,1,11,2,0,25,23,47,16,482,60,Y,Y,1,1,1,5,No Breakfast,3,11
0,4,25,15,F,0,1,5,1,1,1,1,1,1,1,1,9,0,3,25,22,41,14,482,60,Y,Y,1,1,1,6,No Breakfast,4,7
0,4,25,15,F,0,1,5,1,1,1,1,1,1,1,1,10,0,3,26,23,45,16,482,60,Y,Y,1,1,1,7,No Breakfast,3,7
0,4,25,15,F,0,1,5,1,1,1,1,1,1,1,1,11,2,0,25,23,47,16,482,60,Y,Y,1,1,1,8,No Breakfast,3,10
0,4,25,15,F,0,1,5,1,1,1,1,1,1,1,1,10,0,0,27,27,48,17,482,60,Y,Y,1,1,1,9,No Breakfast,4,5
0,4,25,15,F,0,1,5,1,1,1,1,1,1,1,1,14,0,0,23,23,48,17,482,60,Y,Y,1,1,1,10,No Breakfast,10,5
0,4,25,15,F,0,1,5,1,1,1,1,1,1,1,1,10,-,-,-,25,42,15,482,60,Y,N,1,1,1,11,No Breakfast,5,NA
0,4,25,15,F,0,1,5,1,1,1,1,1,1,1,1,9,-,-,-,24,36,13,482,60,Y,N,1,1,1,12,No Breakfast,14,NA
0,4,25,15,F,0,1,5,1,1,1,1,1,1,1,1,3,-,-,-,28,30,11,482,60,Y,N,1,1,1,13,No Breakfast,6,NA
0,4,25,15,F,0,1,5,1,1,1,1,1,1,1,1,5,-,-,-,27,34,12,482,60,Y,N,1,1,1,14,No Breakfast,3,NA
0,4,25,15,F,0,1,5,1,1,1,1,1,1,1,1,7,-,-,-,25,35,12,482,60,Y,N,1,1,1,15,No Breakfast,2,NA
0,4,25,15,F,0,1,5,1,1,1,1,1,1,1,1,7,-,-,-,23,29,10,482,60,Y,N,1,1,1,16,No Breakfast,2,NA
0,4,25,15,F,0,1,5,1,1,1,1,1,1,1,1,0,-,-,-,28,23,8,482,60,Y,N,1,1,1,17,No Breakfast,3,NA
0,4,25,15,F,0,1,5,1,1,1,1,1,1,1,1,0,-,-,-,30,27,10,482,60,Y,N,1,1,1,18,No Breakfast,3,NA
0,4,25,15,F,0,1,5,1,1,1,1,1,1,1,1,5,-,-,-,26,30,11,482,60,Y,N,1,1,1,19,No Breakfast,4,NA
0,4,25,15,F,0,1,5,1,1,1,1,1,1,1,1,0,-,-,-,25,14,5,482,60,Y,N,1,1,1,20,No Breakfast,3,NA
0,4,24,16,F,0,1,5,0,1,0,1,0,1,1,1,0,0,24,34,10,40,14,492,61,Y,Y,0.625,0.5,0.666666667,1,No Breakfast,16,22
0,4,24,16,F,0,1,5,0,1,0,1,0,1,1,1,10,0,0,28,28,52,18,492,61,Y,Y,0.625,0.5,0.666666667,2,No Breakfast,7,10
0,4,24,16,F,0,1,5,0,1,0,1,0,1,1,1,10,0,0,26,26,46,16,492,61,Y,Y,0.625,0.5,0.666666667,3,No Breakfast,3,7
0,4,24,16,F,0,1,5,0,1,0,1,0,1,1,1,10,0,0,23,23,37,13,492,61,Y,Y,0.625,0.5,0.666666667,4,No Breakfast,3,7
0,4,24,16,F,0,1,5,0,1,0,1,0,1,1,1,10,0,0,24,24,41,14,492,61,Y,Y,0.625,0.5,0.666666667,5,No Breakfast,4,8
0,4,24,16,F,0,1,5,0,1,0,1,0,1,1,1,10,0,0,25,25,43,15,492,61,Y,Y,0.625,0.5,0.666666667,6,No Breakfast,4,6
0,4,24,16,F,0,1,5,0,1,0,1,0,1,1,1,10,0,0,21,21,31,11,492,61,Y,Y,0.625,0.5,0.666666667,7,No Breakfast,3,10
0,4,24,16,F,0,1,5,0,1,0,1,0,1,1,1,10,0,0,24,24,39,14,492,61,Y,Y,0.625,0.5,0.666666667,8,No Breakfast,3,11
0,4,24,16,F,0,1,5,0,1,0,1,0,1,1,1,10,0,0,24,24,40,14,492,61,Y,Y,0.625,0.5,0.666666667,9,No Breakfast,4,7
0,4,24,16,F,0,1,5,0,1,0,1,0,1,1,1,10,2,0,17,15,20,7,492,61,Y,Y,0.625,0.5,0.666666667,10,No Breakfast,3,9
0,4,24,16,F,0,1,5,0,1,0,1,0,1,1,1,0,-,-,-,32,35,12,492,61,Y,N,0.625,0.5,0.666666667,11,No Breakfast,27,NA
0,4,24,16,F,0,1,5,0,1,0,1,0,1,1,1,0,-,-,-,28,22,8,492,61,Y,N,0.625,0.5,0.666666667,12,No Breakfast,2,NA
0,4,24,16,F,0,1,5,0,1,0,1,0,1,1,1,0,-,-,-,28,22,8,492,61,Y,N,0.625,0.5,0.666666667,13,No Breakfast,2,NA
0,4,24,16,F,0,1,5,0,1,0,1,0,1,1,1,0,-,-,-,29,24,9,492,61,Y,N,0.625,0.5,0.666666667,14,No Breakfast,2,NA
0,4,24,16,F,0,1,5,0,1,0,1,0,1,1,1,0,-,-,-,29,24,9,492,61,Y,N,0.625,0.5,0.666666667,15,No Breakfast,2,NA
0,4,24,16,F,0,1,5,0,1,0,1,0,1,1,1,0,-,-,-,26,16,6,492,61,Y,N,0.625,0.5,0.666666667,16,No Breakfast,1,NA
0,4,24,16,F,0,1,5,0,1,0,1,0,1,1,1,0,-,-,-,28,23,8,492,61,Y,N,0.625,0.5,0.666666667,17,No Breakfast,2,NA
0,4,24,16,F,0,1,5,0,1,0,1,0,1,1,1,0,-,-,-,24,11,4,492,61,Y,N,0.625,0.5,0.666666667,18,No Breakfast,2,NA
0,4,24,16,F,0,1,5,0,1,0,1,0,1,1,1,0,-,-,-,23,8,3,492,61,Y,N,0.625,0.5,0.666666667,19,No Breakfast,2,NA
0,4,24,16,F,0,1,5,0,1,0,1,0,1,1,1,0,-,-,-,25,15,5,492,61,Y,N,0.625,0.5,0.666666667,20,No Breakfast,2,NA
0,4,13,16,M,0,1,8,1,1,1,1,1,0,1,1,10,4,0,24,20,40,14,461,62,Y,Y,0.875,1,0.833333333,1,No Breakfast,26,39
0,4,13,16,M,0,1,8,1,1,1,1,1,0,1,1,10,0,0,28,28,52,18,461,62,Y,Y,0.875,1,0.833333333,2,No Breakfast,14,11
0,4,13,16,M,0,1,8,1,1,1,1,1,0,1,1,10,0,0,26,26,46,16,461,62,Y,Y,0.875,1,0.833333333,3,No Breakfast,14,10
0,4,13,16,M,0,1,8,1,1,1,1,1,0,1,1,10,2,0,23,21,37,13,461,62,Y,Y,0.875,1,0.833333333,4,No Breakfast,6,16
0,4,13,16,M,0,1,8,1,1,1,1,1,0,1,1,10,0,0,24,24,41,14,461,62,Y,Y,0.875,1,0.833333333,5,No Breakfast,9,10
0,4,13,16,M,0,1,8,1,1,1,1,1,0,1,1,10,0,0,25,25,43,15,461,62,Y,Y,0.875,1,0.833333333,6,No Breakfast,7,17
0,4,13,16,M,0,1,8,1,1,1,1,1,0,1,1,10,6,0,21,15,31,11,461,62,Y,Y,0.875,1,0.833333333,7,No Breakfast,10,23
0,4,13,16,M,0,1,8,1,1,1,1,1,0,1,1,9,0,3,25,22,39,14,461,62,Y,Y,0.875,1,0.833333333,8,No Breakfast,14,5
0,4,13,16,M,0,1,8,1,1,1,1,1,0,1,1,10,0,0,24,24,40,14,461,62,Y,Y,0.875,1,0.833333333,9,No Breakfast,16,5
0,4,13,16,M,0,1,8,1,1,1,1,1,0,1,1,0,6,3,27,18,20,7,461,62,Y,Y,0.875,1,0.833333333,10,No Breakfast,5,11
0,4,13,16,M,0,1,8,1,1,1,1,1,0,1,1,10,-,-,-,22,35,12,461,62,Y,N,0.875,1,0.833333333,11,No Breakfast,16,NA
0,4,13,16,M,0,1,8,1,1,1,1,1,0,1,1,0,-,-,-,28,22,8,461,62,Y,N,0.875,1,0.833333333,12,No Breakfast,19,NA
0,4,13,16,M,0,1,8,1,1,1,1,1,0,1,1,5,-,-,-,23,22,8,461,62,Y,N,0.875,1,0.833333333,13,No Breakfast,16,NA
0,4,13,16,M,0,1,8,1,1,1,1,1,0,1,1,5,-,-,-,24,24,9,461,62,Y,N,0.875,1,0.833333333,14,No Breakfast,4,NA
0,4,13,16,M,0,1,8,1,1,1,1,1,0,1,1,5,-,-,-,24,24,9,461,62,Y,N,0.875,1,0.833333333,15,No Breakfast,3,NA
0,4,13,16,M,0,1,8,1,1,1,1,1,0,1,1,0,-,-,-,26,16,6,461,62,Y,N,0.875,1,0.833333333,16,No Breakfast,3,NA
0,4,13,16,M,0,1,8,1,1,1,1,1,0,1,1,4,-,-,-,24,23,8,461,62,Y,N,0.875,1,0.833333333,17,No Breakfast,7,NA
0,4,13,16,M,0,1,8,1,1,1,1,1,0,1,1,5,-,-,-,19,11,4,461,62,Y,N,0.875,1,0.833333333,18,No Breakfast,4,NA
0,4,13,16,M,0,1,8,1,1,1,1,1,0,1,1,0,-,-,-,23,8,3,461,62,Y,N,0.875,1,0.833333333,19,No Breakfast,4,NA
0,4,13,16,M,0,1,8,1,1,1,1,1,0,1,1,0,-,-,-,25,15,5,461,62,Y,N,0.875,1,0.833333333,20,No Breakfast,4,NA
0,4,22,16,M,0,1,7,0,1,0,1,0,1,1,1,20,0,0,14,14,40,14,404,63,Y,Y,0.625,0.5,0.666666667,1,No Breakfast,25,44
0,4,22,16,M,0,1,7,0,1,0,1,0,1,1,1,20,0,0,18,18,52,18,404,63,Y,Y,0.625,0.5,0.666666667,2,No Breakfast,7,12
0,4,22,16,M,0,1,7,0,1,0,1,0,1,1,1,10,0,0,26,26,46,16,404,63,Y,Y,0.625,0.5,0.666666667,3,No Breakfast,7,5
0,4,22,16,M,0,1,7,0,1,0,1,0,1,1,1,10,0,0,23,23,37,13,404,63,Y,Y,0.625,0.5,0.666666667,4,No Breakfast,5,5
0,4,22,16,M,0,1,7,0,1,0,1,0,1,1,1,10,0,0,24,24,41,14,404,63,Y,Y,0.625,0.5,0.666666667,5,No Breakfast,5,5
0,4,22,16,M,0,1,7,0,1,0,1,0,1,1,1,13,0,0,22,22,43,15,404,63,Y,Y,0.625,0.5,0.666666667,6,No Breakfast,4,4
0,4,22,16,M,0,1,7,0,1,0,1,0,1,1,1,0,0,24,31,7,31,11,404,63,Y,Y,0.625,0.5,0.666666667,7,No Breakfast,8,4
0,4,22,16,M,0,1,7,0,1,0,1,0,1,1,1,10,0,0,24,24,39,14,404,63,Y,Y,0.625,0.5,0.666666667,8,No Breakfast,4,4
0,4,22,16,M,0,1,7,0,1,0,1,0,1,1,1,10,0,0,24,24,40,14,404,63,Y,Y,0.625,0.5,0.666666667,9,No Breakfast,2,4
0,4,22,16,M,0,1,7,0,1,0,1,0,1,1,1,10,0,0,17,17,20,7,404,63,Y,Y,0.625,0.5,0.666666667,10,No Breakfast,3,24
0,4,22,16,M,0,1,7,0,1,0,1,0,1,1,1,10,-,-,-,22,35,12,404,63,Y,N,0.625,0.5,0.666666667,11,No Breakfast,5,NA
0,4,22,16,M,0,1,7,0,1,0,1,0,1,1,1,12,-,-,-,16,22,8,404,63,Y,N,0.625,0.5,0.666666667,12,No Breakfast,6,NA
0,4,22,16,M,0,1,7,0,1,0,1,0,1,1,1,10,-,-,-,18,22,8,404,63,Y,N,0.625,0.5,0.666666667,13,No Breakfast,6,NA
0,4,22,16,M,0,1,7,0,1,0,1,0,1,1,1,10,-,-,-,19,24,9,404,63,Y,N,0.625,0.5,0.666666667,14,No Breakfast,10,NA
0,4,22,16,M,0,1,7,0,1,0,1,0,1,1,1,9,-,-,-,20,24,9,404,63,Y,N,0.625,0.5,0.666666667,15,No Breakfast,6,NA
0,4,22,16,M,0,1,7,0,1,0,1,0,1,1,1,8,-,-,-,18,16,6,404,63,Y,N,0.625,0.5,0.666666667,16,No Breakfast,5,NA
0,4,22,16,M,0,1,7,0,1,0,1,0,1,1,1,8,-,-,-,20,23,8,404,63,Y,N,0.625,0.5,0.666666667,17,No Breakfast,2,NA
0,4,22,16,M,0,1,7,0,1,0,1,0,1,1,1,0,-,-,-,24,11,4,404,63,Y,N,0.625,0.5,0.666666667,18,No Breakfast,8,NA
0,4,22,16,M,0,1,7,0,1,0,1,0,1,1,1,0,-,-,-,23,8,3,404,63,Y,N,0.625,0.5,0.666666667,19,No Breakfast,1,NA
0,4,22,16,M,0,1,7,0,1,0,1,0,1,1,1,0,-,-,-,25,15,5,404,63,Y,N,0.625,0.5,0.666666667,20,No Breakfast,2,NA
0,4,23,16,M,0,1,3,0,0,1,1,1,0,1,1,10,4,0,24,20,40,14,378,64,Y,Y,0.625,1,0.5,1,No Breakfast,23,48
0,4,23,16,M,0,1,3,0,0,1,1,1,0,1,1,12,0,0,26,26,52,18,378,64,Y,Y,0.625,1,0.5,2,No Breakfast,8,13
0,4,23,16,M,0,1,3,0,0,1,1,1,0,1,1,16,0,0,20,20,46,16,378,64,Y,Y,0.625,1,0.5,3,No Breakfast,4,23
0,4,23,16,M,0,1,3,0,0,1,1,1,0,1,1,7,0,6,26,20,37,13,378,64,Y,Y,0.625,1,0.5,4,No Breakfast,4,8
0,4,23,16,M,0,1,3,0,0,1,1,1,0,1,1,11,0,0,23,23,41,14,378,64,Y,Y,0.625,1,0.5,5,No Breakfast,8,7
0,4,23,16,M,0,1,3,0,0,1,1,1,0,1,1,10,0,0,25,25,43,15,378,64,Y,Y,0.625,1,0.5,6,No Breakfast,4,8
0,4,23,16,M,0,1,3,0,0,1,1,1,0,1,1,11,2,0,20,18,31,11,378,64,Y,Y,0.625,1,0.5,7,No Breakfast,2,15
0,4,23,16,M,0,1,3,0,0,1,1,1,0,1,1,10,1,0,24,23,39,14,378,64,Y,Y,0.625,1,0.5,8,No Breakfast,4,10
0,4,23,16,M,0,1,3,0,0,1,1,1,0,1,1,10,0,0,24,24,40,14,378,64,Y,Y,0.625,1,0.5,9,No Breakfast,3,8
0,4,23,16,M,0,1,3,0,0,1,1,1,0,1,1,0,0,21,27,6,20,7,378,64,Y,Y,0.625,1,0.5,10,No Breakfast,11,8
0,4,23,16,M,0,1,3,0,0,1,1,1,0,1,1,15,-,-,-,17,35,12,378,64,Y,N,0.625,1,0.5,11,No Breakfast,9,NA
0,4,23,16,M,0,1,3,0,0,1,1,1,0,1,1,10,-,-,-,18,22,8,378,64,Y,N,0.625,1,0.5,12,No Breakfast,9,NA
0,4,23,16,M,0,1,3,0,0,1,1,1,0,1,1,7,-,-,-,21,22,8,378,64,Y,N,0.625,1,0.5,13,No Breakfast,3,NA
0,4,23,16,M,0,1,3,0,0,1,1,1,0,1,1,9,-,-,-,20,24,9,378,64,Y,N,0.625,1,0.5,14,No Breakfast,5,NA
0,4,23,16,M,0,1,3,0,0,1,1,1,0,1,1,10,-,-,-,19,24,9,378,64,Y,N,0.625,1,0.5,15,No Breakfast,4,NA
0,4,23,16,M,0,1,3,0,0,1,1,1,0,1,1,8,-,-,-,18,16,6,378,64,Y,N,0.625,1,0.5,16,No Breakfast,4,NA
0,4,23,16,M,0,1,3,0,0,1,1,1,0,1,1,11,-,-,-,17,23,8,378,64,Y,N,0.625,1,0.5,17,No Breakfast,4,NA
0,4,23,16,M,0,1,3,0,0,1,1,1,0,1,1,6,-,-,-,18,11,4,378,64,Y,N,0.625,1,0.5,18,No Breakfast,5,NA
0,4,23,16,M,0,1,3,0,0,1,1,1,0,1,1,8,-,-,-,15,8,3,378,64,Y,N,0.625,1,0.5,19,No Breakfast,5,NA
0,4,23,16,M,0,1,3,0,0,1,1,1,0,1,1,15,-,-,-,10,15,5,378,64,Y,N,0.625,1,0.5,20,No Breakfast,6,NA
0,4,19,17,F,0,1,8,1,0,0,1,0,1,1,1,10,0,2,22,20,33,12,420,65,Y,Y,0.625,0.5,0.666666667,1,No Breakfast,12,23
0,4,19,17,F,0,1,8,1,0,0,1,0,1,1,1,8,0,0,25,25,37,13,420,65,Y,Y,0.625,0.5,0.666666667,2,No Breakfast,14,7
0,4,19,17,F,0,1,8,1,0,0,1,0,1,1,1,8,0,0,22,22,28,10,420,65,Y,Y,0.625,0.5,0.666666667,3,No Breakfast,16,12
0,4,19,17,F,0,1,8,1,0,0,1,0,1,1,1,8,0,2,19,17,20,7,420,65,Y,Y,0.625,0.5,0.666666667,4,No Breakfast,10,8
0,4,19,17,F,0,1,8,1,0,0,1,0,1,1,1,1,0,2,24,22,13,5,420,65,Y,Y,0.625,0.5,0.666666667,5,No Breakfast,5,6
0,4,19,17,F,0,1,8,1,0,0,1,0,1,1,1,1,0,0,20,20,3,1,420,65,Y,Y,0.625,0.5,0.666666667,6,No Breakfast,3,9
0,4,19,17,F,0,1,8,1,0,0,1,0,1,1,1,0,0,0,20,20,1,0,420,65,Y,Y,0.625,0.5,0.666666667,7,No Breakfast,8,4
0,4,19,17,F,0,1,8,1,0,0,1,0,1,1,1,0,0,0,20,20,0,0,420,65,Y,Y,0.625,0.5,0.666666667,8,No Breakfast,2,4
0,4,19,17,F,0,1,8,1,0,0,1,0,1,1,1,0,0,2,21,19,2,1,420,65,Y,Y,0.625,0.5,0.666666667,9,No Breakfast,2,4
0,4,19,17,F,0,1,8,1,0,0,1,0,1,1,1,0,0,0,20,20,1,0,420,65,Y,Y,0.625,0.5,0.666666667,10,No Breakfast,3,3
0,4,19,17,F,0,1,8,1,0,0,1,0,1,1,1,0,-,-,-,24,11,4,420,65,Y,N,0.625,0.5,0.666666667,11,No Breakfast,11,NA
0,4,19,17,F,0,1,8,1,0,0,1,0,1,1,1,0,-,-,-,20,1,0,420,65,Y,N,0.625,0.5,0.666666667,12,No Breakfast,4,NA
0,4,19,17,F,0,1,8,1,0,0,1,0,1,1,1,0,-,-,-,21,2,1,420,65,Y,N,0.625,0.5,0.666666667,13,No Breakfast,1,NA
0,4,19,17,F,0,1,8,1,0,0,1,0,1,1,1,0,-,-,-,24,10,4,420,65,Y,N,0.625,0.5,0.666666667,14,No Breakfast,1,NA
0,4,19,17,F,0,1,8,1,0,0,1,0,1,1,1,0,-,-,-,21,2,1,420,65,Y,N,0.625,0.5,0.666666667,15,No Breakfast,2,NA
0,4,19,17,F,0,1,8,1,0,0,1,0,1,1,1,0,-,-,-,20,1,0,420,65,Y,N,0.625,0.5,0.666666667,16,No Breakfast,1,NA
0,4,19,17,F,0,1,8,1,0,0,1,0,1,1,1,0,-,-,-,22,4,2,420,65,Y,N,0.625,0.5,0.666666667,17,No Breakfast,2,NA
0,4,19,17,F,0,1,8,1,0,0,1,0,1,1,1,0,-,-,-,21,2,1,420,65,Y,N,0.625,0.5,0.666666667,18,No Breakfast,6,NA
0,4,19,17,F,0,1,8,1,0,0,1,0,1,1,1,0,-,-,-,21,2,1,420,65,Y,N,0.625,0.5,0.666666667,19,No Breakfast,5,NA
0,4,19,17,F,0,1,8,1,0,0,1,0,1,1,1,0,-,-,-,21,3,1,420,65,Y,N,0.625,0.5,0.666666667,20,No Breakfast,2,NA
0,4,36,17,M,0,1,4,1,0,0,0,0,0,1,0,12,3,0,20,17,33,12,400,66,Y,Y,0.25,0,0.333333333,1,No Breakfast,19,34
0,4,36,17,M,0,1,4,1,0,0,0,0,0,1,0,12,1,0,21,20,37,13,400,66,Y,Y,0.25,0,0.333333333,2,No Breakfast,9,11
0,4,36,17,M,0,1,4,1,0,0,0,0,0,1,0,12,0,2,18,16,28,10,400,66,Y,Y,0.25,0,0.333333333,3,No Breakfast,18,13
0,4,36,17,M,0,1,4,1,0,0,0,0,0,1,0,8,0,2,19,17,20,7,400,66,Y,Y,0.25,0,0.333333333,4,No Breakfast,6,9
0,4,36,17,M,0,1,4,1,0,0,0,0,0,1,0,10,0,0,15,15,13,5,400,66,Y,Y,0.25,0,0.333333333,5,No Breakfast,10,10
0,4,36,17,M,0,1,4,1,0,0,0,0,0,1,0,0,0,0,21,21,3,1,400,66,Y,Y,0.25,0,0.333333333,6,No Breakfast,4,6
0,4,36,17,M,0,1,4,1,0,0,0,0,0,1,0,0,0,0,20,20,1,0,400,66,Y,Y,0.25,0,0.333333333,7,No Breakfast,3,6
0,4,36,17,M,0,1,4,1,0,0,0,0,0,1,0,0,0,0,20,20,0,0,400,66,Y,Y,0.25,0,0.333333333,8,No Breakfast,3,5
0,4,36,17,M,0,1,4,1,0,0,0,0,0,1,0,0,0,2,21,19,2,1,400,66,Y,Y,0.25,0,0.333333333,9,No Breakfast,3,5
0,4,36,17,M,0,1,4,1,0,0,0,0,0,1,0,0,0,0,20,20,1,0,400,66,Y,Y,0.25,0,0.333333333,10,No Breakfast,5,5
0,4,36,17,M,0,1,4,1,0,0,0,0,0,1,0,0,-,-,-,24,11,4,400,66,Y,N,0.25,0,0.333333333,11,No Breakfast,10,NA
0,4,36,17,M,0,1,4,1,0,0,0,0,0,1,0,0,-,-,-,20,1,0,400,66,Y,N,0.25,0,0.333333333,12,No Breakfast,3,NA
0,4,36,17,M,0,1,4,1,0,0,0,0,0,1,0,0,-,-,-,21,2,1,400,66,Y,N,0.25,0,0.333333333,13,No Breakfast,3,NA
0,4,36,17,M,0,1,4,1,0,0,0,0,0,1,0,0,-,-,-,24,10,4,400,66,Y,N,0.25,0,0.333333333,14,No Breakfast,1,NA
0,4,36,17,M,0,1,4,1,0,0,0,0,0,1,0,0,-,-,-,21,2,1,400,66,Y,N,0.25,0,0.333333333,15,No Breakfast,2,NA
0,4,36,17,M,0,1,4,1,0,0,0,0,0,1,0,0,-,-,-,20,1,0,400,66,Y,N,0.25,0,0.333333333,16,No Breakfast,1,NA
0,4,36,17,M,0,1,4,1,0,0,0,0,0,1,0,0,-,-,-,22,4,2,400,66,Y,N,0.25,0,0.333333333,17,No Breakfast,1,NA
0,4,36,17,M,0,1,4,1,0,0,0,0,0,1,0,0,-,-,-,21,2,1,400,66,Y,N,0.25,0,0.333333333,18,No Breakfast,2,NA
0,4,36,17,M,0,1,4,1,0,0,0,0,0,1,0,0,-,-,-,21,2,1,400,66,Y,N,0.25,0,0.333333333,19,No Breakfast,1,NA
0,4,36,17,M,0,1,4,1,0,0,0,0,0,1,0,0,-,-,-,21,3,1,400,66,Y,N,0.25,0,0.333333333,20,No Breakfast,1,NA
0,4,29,17,F,0,1,7,1,1,1,0,0,0,0,0,10,0,2,22,20,33,12,387,67,Y,Y,0.375,0,0.5,1,No Breakfast,15,41
0,4,29,17,F,0,1,7,1,1,1,0,0,0,0,0,12,0,2,21,19,37,13,387,67,Y,Y,0.375,0,0.5,2,No Breakfast,17,13
0,4,29,17,F,0,1,7,1,1,1,0,0,0,0,0,1,1,3,29,25,28,10,387,67,Y,Y,0.375,0,0.5,3,No Breakfast,5,26
0,4,29,17,F,0,1,7,1,1,1,0,0,0,0,0,0,3,3,27,21,20,7,387,67,Y,Y,0.375,0,0.5,4,No Breakfast,4,9
0,4,29,17,F,0,1,7,1,1,1,0,0,0,0,0,2,0,2,23,21,13,5,387,67,Y,Y,0.375,0,0.5,5,No Breakfast,6,6
0,4,29,17,F,0,1,7,1,1,1,0,0,0,0,0,2,0,0,19,19,3,1,387,67,Y,Y,0.375,0,0.5,6,No Breakfast,14,5
0,4,29,17,F,0,1,7,1,1,1,0,0,0,0,0,0,0,0,20,20,1,0,387,67,Y,Y,0.375,0,0.5,7,No Breakfast,2,4
0,4,29,17,F,0,1,7,1,1,1,0,0,0,0,0,0,0,0,20,20,0,0,387,67,Y,Y,0.375,0,0.5,8,No Breakfast,5,4
0,4,29,17,F,0,1,7,1,1,1,0,0,0,0,0,1,2,0,20,18,2,1,387,67,Y,Y,0.375,0,0.5,9,No Breakfast,9,15
0,4,29,17,F,0,1,7,1,1,1,0,0,0,0,0,0,0,0,20,20,1,0,387,67,Y,Y,0.375,0,0.5,10,No Breakfast,4,9
0,4,29,17,F,0,1,7,1,1,1,0,0,0,0,0,10,-,-,-,14,11,4,387,67,Y,N,0.375,0,0.5,11,No Breakfast,10,NA
0,4,29,17,F,0,1,7,1,1,1,0,0,0,0,0,0,-,-,-,20,1,0,387,67,Y,N,0.375,0,0.5,12,No Breakfast,7,NA
0,4,29,17,F,0,1,7,1,1,1,0,0,0,0,0,2,-,-,-,19,2,1,387,67,Y,N,0.375,0,0.5,13,No Breakfast,6,NA
0,4,29,17,F,0,1,7,1,1,1,0,0,0,0,0,9,-,-,-,15,10,4,387,67,Y,N,0.375,0,0.5,14,No Breakfast,7,NA
0,4,29,17,F,0,1,7,1,1,1,0,0,0,0,0,1,-,-,-,20,2,1,387,67,Y,N,0.375,0,0.5,15,No Breakfast,4,NA
0,4,29,17,F,0,1,7,1,1,1,0,0,0,0,0,1,-,-,-,19,1,0,387,67,Y,N,0.375,0,0.5,16,No Breakfast,4,NA
0,4,29,17,F,0,1,7,1,1,1,0,0,0,0,0,3,-,-,-,19,4,2,387,67,Y,N,0.375,0,0.5,17,No Breakfast,5,NA
0,4,29,17,F,0,1,7,1,1,1,0,0,0,0,0,2,-,-,-,19,2,1,387,67,Y,N,0.375,0,0.5,18,No Breakfast,3,NA
0,4,29,17,F,0,1,7,1,1,1,0,0,0,0,0,1,-,-,-,20,2,1,387,67,Y,N,0.375,0,0.5,19,No Breakfast,11,NA
0,4,29,17,F,0,1,7,1,1,1,0,0,0,0,0,2,-,-,-,19,3,1,387,67,Y,N,0.375,0,0.5,20,No Breakfast,4,NA
0,4,11,17,F,0,1,7,0,1,0,1,1,1,1,1,1,0,3,31,28,33,12,428,68,Y,Y,0.75,1,0.666666667,1,No Breakfast,14,30
0,4,11,17,F,0,1,7,0,1,0,1,1,1,1,1,5,0,0,28,28,37,13,428,68,Y,Y,0.75,1,0.666666667,2,No Breakfast,21,33
0,4,11,17,F,0,1,7,0,1,0,1,1,1,1,1,7,1,0,23,22,28,10,428,68,Y,Y,0.75,1,0.666666667,3,No Breakfast,6,9
0,4,11,17,F,0,1,7,0,1,0,1,1,1,1,1,4,1,2,23,20,20,7,428,68,Y,Y,0.75,1,0.666666667,4,No Breakfast,4,8
0,4,11,17,F,0,1,7,0,1,0,1,1,1,1,1,0,2,0,25,23,13,5,428,68,Y,Y,0.75,1,0.666666667,5,No Breakfast,3,10
0,4,11,17,F,0,1,7,0,1,0,1,1,1,1,1,0,0,0,21,21,3,1,428,68,Y,Y,0.75,1,0.666666667,6,No Breakfast,4,10
0,4,11,17,F,0,1,7,0,1,0,1,1,1,1,1,1,0,0,19,19,1,0,428,68,Y,Y,0.75,1,0.666666667,7,No Breakfast,4,13
0,4,11,17,F,0,1,7,0,1,0,1,1,1,1,1,0,0,0,20,20,0,0,428,68,Y,Y,0.75,1,0.666666667,8,No Breakfast,5,7
0,4,11,17,F,0,1,7,0,1,0,1,1,1,1,1,1,0,0,20,20,2,1,428,68,Y,Y,0.75,1,0.666666667,9,No Breakfast,4,8
